ExperimentName,Subject,AgeGroup,Session,Clock.Information,DataFile.Basename,Display.RefreshRate,ExperimentVersion,Group,RandomSeed,ResearcherID,RuntimeCapabilities,RuntimeVersion,RuntimeVersionExpected,SessionDate,SessionStartDateTimeUtc,SessionTime,StudioVersion,ThankYou.DEVICE,Block,Age.DEVICE,Age.RESP,Age.RT,Birthday.DEVICE,Birthday.RESP,Birthday.RT,EduAttain.Choice1.ValueLabel,EduAttain.DEVICE,EduYears.Choice1.ValueLabel,EduYears.DEVICE,EnglishLanguage.Choice1.ValueLabel,EnglishLanguage.DEVICE,Ethnicity.Choice1.ValueLabel,Ethnicity.DEVICE,Gender.Choice1.ValueLabel,Gender.DEVICE,Handedness.Choice1.ValueLabel,Handedness.DEVICE,Phase,Procedure,Running,Superblock,Superblock.Cycle,Superblock.Sample,Welcome.DEVICE,Welcome.DEVICE,Eyesight.Choice1.ValueLabel,Eyesight.DEVICE,Health.Choice1.ValueLabel,Health.DEVICE,Hearing.Choice1.ValueLabel,Hearing.DEVICE,Medical.Choice1.ValueLabel,Medical.DEVICE
Demo_Q_YAs,101,Younger,1,"<?xml version=""1.0""?>\n<Clock xmlns:dt=""urn:schemas-microsoft-com:datatypes""><Description dt:dt=""string"">E-Prime Primary Realtime Clock</Description><StartTime><Timestamp dt:dt=""int"">0</Timestamp><DateUtc dt:dt=""string"">2022-08-30T17:05:03Z</DateUtc></StartTime><FrequencyChanges><FrequencyChange><Frequency dt:dt=""r8"">10000000</Frequency><Timestamp dt:dt=""r8"">9497155474786</Timestamp><Current dt:dt=""r8"">0</Current><DateUtc dt:dt=""string"">2022-08-30T17:05:03Z</DateUtc></FrequencyChange></FrequencyChanges></Clock>\n",Demo_Q_YAs-101-1,75.021,1.0.0.66,1,985296023,1,Full,3.0.3.80,3.0.3.80,8/30/2022,8/30/2022 17:05,13:05:04,3.0.3.82,Keyboard,1,Keyboard,19{ENTER},2924,Keyboard,04{/}04{/}2003{ENTER},11130,Diploma/GED,Button,12,Button,Yes,Button,African American,Button,Male,Button,Right hand,Button,Phase1,Proc1,Superblock,1,1,1,Keyboard,Keyboard,,,,,,,,
Demo_Q_YAs,102,Younger,2,"<?xml version=""1.0""?>\n<Clock xmlns:dt=""urn:schemas-microsoft-com:datatypes""><Description dt:dt=""string"">E-Prime Primary Realtime Clock</Description><StartTime><Timestamp dt:dt=""int"">0</Timestamp><DateUtc dt:dt=""string"">2022-08-31T15:06:12Z</DateUtc></StartTime><FrequencyChanges><FrequencyChange><Frequency dt:dt=""r8"">10000000</Frequency><Timestamp dt:dt=""r8"">13034980097863</Timestamp><Current dt:dt=""r8"">0</Current><DateUtc dt:dt=""string"">2022-08-31T15:06:12Z</DateUtc></FrequencyChange></FrequencyChanges></Clock>\n",Demo_Q_YAs-102-2,75.015,1.0.0.66,1,-243001004,1,Full,3.0.3.80,3.0.3.80,8/31/2022,8/31/2022 15:06,11:06:12,3.0.3.82,Keyboard,1,Keyboard,29{ENTER},1518,Keyboard,02{/}26{/}1993{ENTER},9067,Bachelors,Button,19,Button,Yes,Button,Caucasian ,Button,Male,Button,Left hand ,Button,Phase1,Proc1,Superblock,1,1,1,Keyboard,Keyboard,,,,,,,,
Demo_Q_YAs,103,Younger,3,"<?xml version=""1.0""?>\n<Clock xmlns:dt=""urn:schemas-microsoft-com:datatypes""><Description dt:dt=""string"">E-Prime Primary Realtime Clock</Description><StartTime><Timestamp dt:dt=""int"">0</Timestamp><DateUtc dt:dt=""string"">2022-08-31T17:05:07Z</DateUtc></StartTime><FrequencyChanges><FrequencyChange><Frequency dt:dt=""r8"">10000000</Frequency><Timestamp dt:dt=""r8"">930748004683</Timestamp><Current dt:dt=""r8"">0</Current><DateUtc dt:dt=""string"">2022-08-31T17:05:07Z</DateUtc></FrequencyChange></FrequencyChanges></Clock>\n",Demo_Q_YAs-103-3,75.025,1.0.0.66,1,-1257300158,1,Full,3.0.3.80,3.0.3.80,8/31/2022,8/31/2022 17:05,13:05:07,3.0.3.82,Keyboard,1,Keyboard,18{ENTER},3978,Keyboard,09{/}11{/}2003{ENTER},15966,Diploma/GED,Button,12,Button,Yes,Button,African American,Button,Gender Diverse,Button,Right hand,Button,Phase1,Proc1,Superblock,1,1,1,Keyboard,Keyboard,,,,,,,,
Demo_Q_YAs,104,Younger,4,"<?xml version=""1.0""?>\n<Clock xmlns:dt=""urn:schemas-microsoft-com:datatypes""><Description dt:dt=""string"">E-Prime Primary Realtime Clock</Description><StartTime><Timestamp dt:dt=""int"">0</Timestamp><DateUtc dt:dt=""string"">2022-09-12T21:07:19Z</DateUtc></StartTime><FrequencyChanges><FrequencyChange><Frequency dt:dt=""r8"">10000000</Frequency><Timestamp dt:dt=""r8"">294714689052</Timestamp><Current dt:dt=""r8"">0</Current><DateUtc dt:dt=""string"">2022-09-12T21:07:19Z</DateUtc></FrequencyChange></FrequencyChanges></Clock>\n",Demo_Q_YAs-104-4,75.032,1.0.0.66,1,-1635382314,1,Full,3.0.3.80,3.0.3.80,9/12/2022,9/12/2022,17:07:20,3.0.3.82,Keyboard,1,Keyboard,20{ENTER},2017,Keyboard,10{/}16{/}2001{ENTER},11820,Diploma/GED,Button,14,Button,Yes,Button,Caucasian ,Button,Female,Button,Right hand,Button,Phase1,Proc1,Superblock,1,1,1,Keyboard,Keyboard,,,,,,,,
Demo_Q_YAs,105,Younger,5,"<?xml version=""1.0""?>\n<Clock xmlns:dt=""urn:schemas-microsoft-com:datatypes""><Description dt:dt=""string"">E-Prime Primary Realtime Clock</Description><StartTime><Timestamp dt:dt=""int"">0</Timestamp><DateUtc dt:dt=""string"">2022-08-31T19:02:25Z</DateUtc></StartTime><FrequencyChanges><FrequencyChange><Frequency dt:dt=""r8"">10000000</Frequency><Timestamp dt:dt=""r8"">1001127366835</Timestamp><Current dt:dt=""r8"">0</Current><DateUtc dt:dt=""string"">2022-08-31T19:02:25Z</DateUtc></FrequencyChange></FrequencyChanges></Clock>\n",Demo_Q_YAs-105-5,75.027,1.0.0.66,1,402629459,1,Full,3.0.3.80,3.0.3.80,8/31/2022,8/31/2022 19:02,15:02:25,3.0.3.82,Keyboard,1,Keyboard,18{ENTER},2080,Keyboard,12{/}29{/}2003{ENTER},7482,Diploma/GED,Button,12,Button,Yes,Button,Caucasian ,Button,Male,Button,Right hand,Button,Phase1,Proc1,Superblock,1,1,1,Keyboard,Keyboard,,,,,,,,
Demo_Q_YAs,106,Younger,1,"<?xml version=""1.0""?>\n<Clock xmlns:dt=""urn:schemas-microsoft-com:datatypes""><Description dt:dt=""string"">E-Prime Primary Realtime Clock</Description><StartTime><Timestamp dt:dt=""int"">0</Timestamp><DateUtc dt:dt=""string"">2022-09-01T13:03:36Z</DateUtc></StartTime><FrequencyChanges><FrequencyChange><Frequency dt:dt=""r8"">10000000</Frequency><Timestamp dt:dt=""r8"">1649851968710</Timestamp><Current dt:dt=""r8"">0</Current><DateUtc dt:dt=""string"">2022-09-01T13:03:36Z</DateUtc></FrequencyChange></FrequencyChanges></Clock>\n",Demo_Q_YAs-106-1,75.027,1.0.0.66,1,587154202,1,Full,3.0.3.80,3.0.3.80,9/1/2022,9/1/2022,9:03:37,3.0.3.82,Keyboard,1,Keyboard,19{ENTER},2792,Keyboard,06{/}25{/}2003{ENTER},15191,Diploma/GED,Button,12,Button,Yes,Button,Caucasian ,Button,Female,Button,Right hand,Button,Phase1,Proc1,Superblock,1,1,1,Keyboard,Keyboard,,,,,,,,
Demo_Q_YAs,107,Younger,2,"<?xml version=""1.0""?>\n<Clock xmlns:dt=""urn:schemas-microsoft-com:datatypes""><Description dt:dt=""string"">E-Prime Primary Realtime Clock</Description><StartTime><Timestamp dt:dt=""int"">0</Timestamp><DateUtc dt:dt=""string"">2022-09-02T16:01:50Z</DateUtc></StartTime><FrequencyChanges><FrequencyChange><Frequency dt:dt=""r8"">10000000</Frequency><Timestamp dt:dt=""r8"">14796347671893</Timestamp><Current dt:dt=""r8"">0</Current><DateUtc dt:dt=""string"">2022-09-02T16:01:50Z</DateUtc></FrequencyChange></FrequencyChanges></Clock>\n",Demo_Q_YAs-107-2,75.007,1.0.0.66,1,187887060,1,Full,3.0.3.80,3.0.3.80,9/2/2022,9/2/2022,12:01:50,3.0.3.82,Keyboard,1,Keyboard,18{ENTER},2120,Keyboard,12232003{ENTER},7928,Associates,Button,14,Button,Yes,Button,Asian or Pacific Islander,Button,Female,Button,Right hand,Button,Phase1,Proc1,Superblock,1,1,1,Keyboard,Keyboard,,,,,,,,
Demo_Q_YAs,108,Younger,3,"<?xml version=""1.0""?>\n<Clock xmlns:dt=""urn:schemas-microsoft-com:datatypes""><Description dt:dt=""string"">E-Prime Primary Realtime Clock</Description><StartTime><Timestamp dt:dt=""int"">0</Timestamp><DateUtc dt:dt=""string"">2022-09-06T17:09:07Z</DateUtc></StartTime><FrequencyChanges><FrequencyChange><Frequency dt:dt=""r8"">10000000</Frequency><Timestamp dt:dt=""r8"">18292739472716</Timestamp><Current dt:dt=""r8"">0</Current><DateUtc dt:dt=""string"">2022-09-06T17:09:07Z</DateUtc></FrequencyChange></FrequencyChanges></Clock>\n",Demo_Q_YAs-108-3,75.032,1.0.0.66,1,476417900,1,Full,3.0.3.80,3.0.3.80,9/6/2022,9/6/2022,13:09:08,3.0.3.82,Keyboard,1,Keyboard,39{ENTER},3226,Keyboard,01{/}14{/}1983{ENTER},9648,Doctorate/PhD,Button,19,Button,Yes,Button,Caucasian ,Button,Male,Button,Right hand,Button,Phase1,Proc1,Superblock,1,1,1,Keyboard,Keyboard,,,,,,,,
Demo_Q_YAs,109,Younger,4,"<?xml version=""1.0""?>\n<Clock xmlns:dt=""urn:schemas-microsoft-com:datatypes""><Description dt:dt=""string"">E-Prime Primary Realtime Clock</Description><StartTime><Timestamp dt:dt=""int"">0</Timestamp><DateUtc dt:dt=""string"">2022-09-07T17:32:38Z</DateUtc></StartTime><FrequencyChanges><FrequencyChange><Frequency dt:dt=""r8"">10000000</Frequency><Timestamp dt:dt=""r8"">19242812276100</Timestamp><Current dt:dt=""r8"">0</Current><DateUtc dt:dt=""string"">2022-09-07T17:32:38Z</DateUtc></FrequencyChange></FrequencyChanges></Clock>\n",Demo_Q_YAs-109-4,75.008,1.0.0.66,1,1361521504,1,Full,3.0.3.80,3.0.3.80,9/7/2022,9/7/2022,13:32:38,3.0.3.82,Keyboard,1,Keyboard,18{ENTER},2142,Keyboard,02282004{ENTER},6539,Diploma/GED,Button,12,Button,Yes,Button,African American,Button,Female,Button,Right hand,Button,Phase1,Proc1,Superblock,1,1,1,Keyboard,Keyboard,,,,,,,,
Demo_Q_YAs,110,Younger,5,"<?xml version=""1.0""?>\n<Clock xmlns:dt=""urn:schemas-microsoft-com:datatypes""><Description dt:dt=""string"">E-Prime Primary Realtime Clock</Description><StartTime><Timestamp dt:dt=""int"">0</Timestamp><DateUtc dt:dt=""string"">2022-09-07T17:06:05Z</DateUtc></StartTime><FrequencyChanges><FrequencyChange><Frequency dt:dt=""r8"">10000000</Frequency><Timestamp dt:dt=""r8"">19154937922868</Timestamp><Current dt:dt=""r8"">0</Current><DateUtc dt:dt=""string"">2022-09-07T17:06:05Z</DateUtc></FrequencyChange></FrequencyChanges></Clock>\n",Demo_Q_YAs-110-5,75.02,1.0.0.66,1,-613305477,1,Full,3.0.3.80,3.0.3.80,9/7/2022,9/7/2022,13:06:05,3.0.3.82,Keyboard,1,Keyboard,18{ENTER},3058,Keyboard,10102003{ENTER},7071,Diploma/GED,Button,13,Button,No,Button,Hispanic or Latino,Button,Female,Button,Right hand,Button,Phase1,Proc1,Superblock,1,1,1,Keyboard,Keyboard,,,,,,,,
Demo_Q_YAs,111,Younger,1,"<?xml version=""1.0""?>\n<Clock xmlns:dt=""urn:schemas-microsoft-com:datatypes""><Description dt:dt=""string"">E-Prime Primary Realtime Clock</Description><StartTime><Timestamp dt:dt=""int"">0</Timestamp><DateUtc dt:dt=""string"">2022-09-08T17:35:58Z</DateUtc></StartTime><FrequencyChanges><FrequencyChange><Frequency dt:dt=""r8"">10000000</Frequency><Timestamp dt:dt=""r8"">20036892154921</Timestamp><Current dt:dt=""r8"">0</Current><DateUtc dt:dt=""string"">2022-09-08T17:35:58Z</DateUtc></FrequencyChange></FrequencyChanges></Clock>\n",Demo_Q_YAs-111-1,75.016,1.0.0.66,1,872713137,1,Full,3.0.3.80,3.0.3.80,9/8/2022,9/8/2022,13:35:59,3.0.3.82,Keyboard,1,Keyboard,18{ENTER},2727,Keyboard,06102004{ENTER},8446,Diploma/GED,Button,12,Button,No,Button,Hispanic or Latino,Button,Female,Button,Right hand,Button,Phase1,Proc1,Superblock,1,1,1,Keyboard,Keyboard,,,,,,,,
Demo_Q_YAs,112,Younger,2,"<?xml version=""1.0""?>\n<Clock xmlns:dt=""urn:schemas-microsoft-com:datatypes""><Description dt:dt=""string"">E-Prime Primary Realtime Clock</Description><StartTime><Timestamp dt:dt=""int"">0</Timestamp><DateUtc dt:dt=""string"">2022-09-12T19:02:41Z</DateUtc></StartTime><FrequencyChanges><FrequencyChange><Frequency dt:dt=""r8"">10000000</Frequency><Timestamp dt:dt=""r8"">15246818315</Timestamp><Current dt:dt=""r8"">0</Current><DateUtc dt:dt=""string"">2022-09-12T19:02:41Z</DateUtc></FrequencyChange></FrequencyChanges></Clock>\n",Demo_Q_YAs-112-2,75.023,1.0.0.66,1,-1930410466,1,Full,3.0.3.80,3.0.3.80,9/12/2022,9/12/2022,15:02:41,3.0.3.82,Keyboard,1,Keyboard,18{ENTER},2855,Keyboard,06232004{ENTER},10059,Diploma/GED,Button,12,Button,Yes,Button,African American,Button,Female,Button,Right hand,Button,Phase1,Proc1,Superblock,1,1,1,Keyboard,Keyboard,,,,,,,,
Demo_Q_YAs,113,Younger,3,"<?xml version=""1.0""?>\n<Clock xmlns:dt=""urn:schemas-microsoft-com:datatypes""><Description dt:dt=""string"">E-Prime Primary Realtime Clock</Description><StartTime><Timestamp dt:dt=""int"">0</Timestamp><DateUtc dt:dt=""string"">2022-09-13T14:10:41Z</DateUtc></StartTime><FrequencyChanges><FrequencyChange><Frequency dt:dt=""r8"">10000000</Frequency><Timestamp dt:dt=""r8"">644343828680</Timestamp><Current dt:dt=""r8"">0</Current><DateUtc dt:dt=""string"">2022-09-13T14:10:41Z</DateUtc></FrequencyChange></FrequencyChanges></Clock>\n",Demo_Q_YAs-113-3,75.018,1.0.0.66,1,101648253,1,Full,3.0.3.80,3.0.3.80,9/13/2022,9/13/2022 14:10,10:10:41,3.0.3.82,Keyboard,1,Keyboard,23{ENTER},1673,Keyboard,06221999{ENTER},4889,Diploma/GED,Button,13,Button,Yes,Button,African American,Button,Female,Button,Right hand,Button,Phase1,Proc1,Superblock,1,1,1,Keyboard,Keyboard,,,,,,,,
Demo_Q_YAs,114,Younger,4,"<?xml version=""1.0""?>\n<Clock xmlns:dt=""urn:schemas-microsoft-com:datatypes""><Description dt:dt=""string"">E-Prime Primary Realtime Clock</Description><StartTime><Timestamp dt:dt=""int"">0</Timestamp><DateUtc dt:dt=""string"">2022-09-13T17:01:58Z</DateUtc></StartTime><FrequencyChanges><FrequencyChange><Frequency dt:dt=""r8"">10000000</Frequency><Timestamp dt:dt=""r8"">65732641554</Timestamp><Current dt:dt=""r8"">0</Current><DateUtc dt:dt=""string"">2022-09-13T17:01:58Z</DateUtc></FrequencyChange></FrequencyChanges></Clock>\n",Demo_Q_YAs-114-4,75.012,1.0.0.66,1,1310748449,1,Full,3.0.3.80,3.0.3.80,9/13/2022,9/13/2022 17:01,13:01:58,3.0.3.82,Keyboard,1,Keyboard,18{ENTER},2786,Keyboard,07082004{ENTER},10083,Diploma/GED,Button,12,Button,No,Button,Hispanic or Latino,Button,Female,Button,Right hand,Button,Phase1,Proc1,Superblock,1,1,1,Keyboard,Keyboard,,,,,,,,
Demo_Q_YAs,115,Younger,5,"<?xml version=""1.0""?>\n<Clock xmlns:dt=""urn:schemas-microsoft-com:datatypes""><Description dt:dt=""string"">E-Prime Primary Realtime Clock</Description><StartTime><Timestamp dt:dt=""int"">0</Timestamp><DateUtc dt:dt=""string"">2022-09-14T17:02:10Z</DateUtc></StartTime><FrequencyChanges><FrequencyChange><Frequency dt:dt=""r8"">10000000</Frequency><Timestamp dt:dt=""r8"">929864324542</Timestamp><Current dt:dt=""r8"">0</Current><DateUtc dt:dt=""string"">2022-09-14T17:02:10Z</DateUtc></FrequencyChange></FrequencyChanges></Clock>\n",Demo_Q_YAs-115-5,75.008,1.0.0.66,1,-2140917287,1,Full,3.0.3.80,3.0.3.80,9/14/2022,9/14/2022 17:02,13:02:11,3.0.3.82,Keyboard,1,Keyboard,19{ENTER},2167,Keyboard,4{/}14{/}2003{ENTER},8552,Diploma/GED,Button,12,Button,Yes,Button,Caucasian ,Button,Female,Button,Right hand,Button,Phase1,Proc1,Superblock,1,1,1,Keyboard,Keyboard,,,,,,,,
Demo_Q_YAs,116,Younger,1,"<?xml version=""1.0""?>\n<Clock xmlns:dt=""urn:schemas-microsoft-com:datatypes""><Description dt:dt=""string"">E-Prime Primary Realtime Clock</Description><StartTime><Timestamp dt:dt=""int"">0</Timestamp><DateUtc dt:dt=""string"">2022-09-16T16:29:11Z</DateUtc></StartTime><FrequencyChanges><FrequencyChange><Frequency dt:dt=""r8"">10000000</Frequency><Timestamp dt:dt=""r8"">1667730140636</Timestamp><Current dt:dt=""r8"">0</Current><DateUtc dt:dt=""string"">2022-09-16T16:29:11Z</DateUtc></FrequencyChange></FrequencyChanges></Clock>\n",Demo_Q_YAs-116-1,75.02,1.0.0.66,1,1285421928,1,Full,3.0.3.80,3.0.3.80,9/16/2022,9/16/2022 16:29,12:29:11,3.0.3.82,Keyboard,1,Keyboard,18{SPACE}{ENTER},5239,Keyboard,03{/}07{/}2004{ENTER},16283,Associates,Button,12,Button,Yes,Button,Caucasian ,Button,Female,Button,Right hand,Button,Phase1,Proc1,Superblock,1,1,1,Keyboard,Keyboard,,,,,,,,
Demo_Q_YAs,117,Younger,2,"<?xml version=""1.0""?>\n<Clock xmlns:dt=""urn:schemas-microsoft-com:datatypes""><Description dt:dt=""string"">E-Prime Primary Realtime Clock</Description><StartTime><Timestamp dt:dt=""int"">0</Timestamp><DateUtc dt:dt=""string"">2022-09-19T17:16:06Z</DateUtc></StartTime><FrequencyChanges><FrequencyChange><Frequency dt:dt=""r8"">10000000</Frequency><Timestamp dt:dt=""r8"">2575853223394</Timestamp><Current dt:dt=""r8"">0</Current><DateUtc dt:dt=""string"">2022-09-19T17:16:06Z</DateUtc></FrequencyChange></FrequencyChanges></Clock>\n",Demo_Q_YAs-117-2,75.026,1.0.0.66,1,-1124563074,1,Full,3.0.3.80,3.0.3.80,9/19/2022,9/19/2022 17:16,13:16:06,3.0.3.82,Keyboard,1,Keyboard,19{ENTER},3422,Keyboard,05{/}06{/}2003{SPACE}{ENTER},17156,Diploma/GED,Button,18,Button,Yes,Button,African American,Button,Female,Button,Right hand,Button,Phase1,Proc1,Superblock,1,1,1,Keyboard,Keyboard,,,,,,,,
Demo_Q_YAs,118,Younger,3,"<?xml version=""1.0""?>\n<Clock xmlns:dt=""urn:schemas-microsoft-com:datatypes""><Description dt:dt=""string"">E-Prime Primary Realtime Clock</Description><StartTime><Timestamp dt:dt=""int"">0</Timestamp><DateUtc dt:dt=""string"">2022-09-20T14:03:15Z</DateUtc></StartTime><FrequencyChanges><FrequencyChange><Frequency dt:dt=""r8"">10000000</Frequency><Timestamp dt:dt=""r8"">673393934975</Timestamp><Current dt:dt=""r8"">0</Current><DateUtc dt:dt=""string"">2022-09-20T14:03:15Z</DateUtc></FrequencyChange></FrequencyChanges></Clock>\n",Demo_Q_YAs-118-3,75.007,1.0.0.66,1,-913059372,1,Full,3.0.3.80,3.0.3.80,9/20/2022,9/20/2022 14:03,10:03:16,3.0.3.82,Keyboard,1,Keyboard,18{ENTER},2438,Keyboard,01032004{ENTER},5953,Diploma/GED,Button,12,Button,Yes,Button,Caucasian ,Button,Female,Button,Right hand,Button,Phase1,Proc1,Superblock,1,1,1,Keyboard,Keyboard,,,,,,,,
Demo_Q_YAs,119,Younger,4,"<?xml version=""1.0""?>\n<Clock xmlns:dt=""urn:schemas-microsoft-com:datatypes""><Description dt:dt=""string"">E-Prime Primary Realtime Clock</Description><StartTime><Timestamp dt:dt=""int"">0</Timestamp><DateUtc dt:dt=""string"">2022-09-20T16:58:52Z</DateUtc></StartTime><FrequencyChanges><FrequencyChange><Frequency dt:dt=""r8"">10000000</Frequency><Timestamp dt:dt=""r8"">64931099702</Timestamp><Current dt:dt=""r8"">0</Current><DateUtc dt:dt=""string"">2022-09-20T16:58:52Z</DateUtc></FrequencyChange></FrequencyChanges></Clock>\n",Demo_Q_YAs-119-4,75.009,1.0.0.66,1,509257484,1,Full,3.0.3.80,3.0.3.80,9/20/2022,9/20/2022 16:58,12:58:52,3.0.3.82,Keyboard,1,Keyboard,20{ENTER},3331,Keyboard,01{/}15{/}2002{ENTER},14216,Diploma/GED,Button,14,Button,Yes,Button,Hispanic or Latino,Button,Female,Button,Right hand,Button,Phase1,Proc1,Superblock,1,1,1,Keyboard,Keyboard,,,,,,,,
Demo_Q_YAs,120,Younger,5,"<?xml version=""1.0""?>\n<Clock xmlns:dt=""urn:schemas-microsoft-com:datatypes""><Description dt:dt=""string"">E-Prime Primary Realtime Clock</Description><StartTime><Timestamp dt:dt=""int"">0</Timestamp><DateUtc dt:dt=""string"">2022-09-21T17:03:52Z</DateUtc></StartTime><FrequencyChanges><FrequencyChange><Frequency dt:dt=""r8"">10000000</Frequency><Timestamp dt:dt=""r8"">19074006788500</Timestamp><Current dt:dt=""r8"">0</Current><DateUtc dt:dt=""string"">2022-09-21T17:03:52Z</DateUtc></FrequencyChange></FrequencyChanges></Clock>\n",Demo_Q_YAs-120-5,75.032,1.0.0.66,1,59617958,1,Full,3.0.3.80,3.0.3.80,9/21/2022,9/21/2022 17:03,13:03:52,3.0.3.82,Keyboard,1,Keyboard,18{ENTER},2631,Keyboard,11042003{ENTER},9193,Diploma/GED,Button,12,Button,Yes,Button,African American,Button,Female,Button,Right hand,Button,Phase1,Proc1,Superblock,1,1,1,Keyboard,Keyboard,,,,,,,,
Demo_Q_YAs,121,Younger,1,"<?xml version=""1.0""?>\n<Clock xmlns:dt=""urn:schemas-microsoft-com:datatypes""><Description dt:dt=""string"">E-Prime Primary Realtime Clock</Description><StartTime><Timestamp dt:dt=""int"">0</Timestamp><DateUtc dt:dt=""string"">2022-09-23T16:31:10Z</DateUtc></StartTime><FrequencyChanges><FrequencyChange><Frequency dt:dt=""r8"">10000000</Frequency><Timestamp dt:dt=""r8"">2640310955039</Timestamp><Current dt:dt=""r8"">0</Current><DateUtc dt:dt=""string"">2022-09-23T16:31:10Z</DateUtc></FrequencyChange></FrequencyChanges></Clock>\n",Demo_Q_YAs-121-1,75.027,1.0.0.66,1,-1091202831,1,Full,3.0.3.80,3.0.3.80,9/23/2022,9/23/2022 16:31,12:31:10,3.0.3.82,Keyboard,1,Keyboard,19{ENTER},2611,Keyboard,08192003{ENTER},6272,Diploma/GED,Button,13,Button,Yes,Button,African American,Button,Female,Button,Right hand,Button,Phase1,Proc1,Superblock,1,1,1,Keyboard,Keyboard,,,,,,,,
Demo_Q_YAs,122,Younger,2,"<?xml version=""1.0""?>\n<Clock xmlns:dt=""urn:schemas-microsoft-com:datatypes""><Description dt:dt=""string"">E-Prime Primary Realtime Clock</Description><StartTime><Timestamp dt:dt=""int"">0</Timestamp><DateUtc dt:dt=""string"">2022-09-26T16:53:55Z</DateUtc></StartTime><FrequencyChanges><FrequencyChange><Frequency dt:dt=""r8"">10000000</Frequency><Timestamp dt:dt=""r8"">2564889479242</Timestamp><Current dt:dt=""r8"">0</Current><DateUtc dt:dt=""string"">2022-09-26T16:53:55Z</DateUtc></FrequencyChange></FrequencyChanges></Clock>\n",Demo_Q_YAs-122-2,75.016,1.0.0.66,1,796615479,1,Full,3.0.3.80,3.0.3.80,9/26/2022,9/26/2022 16:53,12:53:55,3.0.3.82,Keyboard,1,Keyboard,18{ENTER},2151,Keyboard,05202004{ENTER},7887,Diploma/GED,Button,12,Button,Yes,Button,Caucasian ,Button,Female,Button,Right hand,Button,Phase1,Proc1,Superblock,1,1,1,Keyboard,Keyboard,,,,,,,,
Demo_Q_YAs,123,Younger,3,"<?xml version=""1.0""?>\n<Clock xmlns:dt=""urn:schemas-microsoft-com:datatypes""><Description dt:dt=""string"">E-Prime Primary Realtime Clock</Description><StartTime><Timestamp dt:dt=""int"">0</Timestamp><DateUtc dt:dt=""string"">2022-09-26T19:24:14Z</DateUtc></StartTime><FrequencyChanges><FrequencyChange><Frequency dt:dt=""r8"">10000000</Frequency><Timestamp dt:dt=""r8"">2655082044218</Timestamp><Current dt:dt=""r8"">0</Current><DateUtc dt:dt=""string"">2022-09-26T19:24:14Z</DateUtc></FrequencyChange></FrequencyChanges></Clock>\n",Demo_Q_YAs-123-3,75.007,1.0.0.66,1,795178744,1,Full,3.0.3.80,3.0.3.80,9/26/2022,9/26/2022 19:24,15:24:15,3.0.3.82,Keyboard,1,Keyboard,19{ENTER},2671,Keyboard,10312002{ENTER},7602,Diploma/GED,Button,14,Button,Yes,Button,African American,Button,Female,Button,Left hand ,Button,Phase1,Proc1,Superblock,1,1,1,Keyboard,Keyboard,,,,,,,,
Demo_Q_YAs,124,Younger,4,"<?xml version=""1.0""?>\n<Clock xmlns:dt=""urn:schemas-microsoft-com:datatypes""><Description dt:dt=""string"">E-Prime Primary Realtime Clock</Description><StartTime><Timestamp dt:dt=""int"">0</Timestamp><DateUtc dt:dt=""string"">2022-09-27T16:58:58Z</DateUtc></StartTime><FrequencyChanges><FrequencyChange><Frequency dt:dt=""r8"">10000000</Frequency><Timestamp dt:dt=""r8"">115994860834</Timestamp><Current dt:dt=""r8"">0</Current><DateUtc dt:dt=""string"">2022-09-27T16:58:58Z</DateUtc></FrequencyChange></FrequencyChanges></Clock>\n",Demo_Q_YAs-124-4,75.013,1.0.0.66,1,33379865,1,Full,3.0.3.80,3.0.3.80,9/27/2022,9/27/2022 16:58,12:58:58,3.0.3.82,Keyboard,1,Keyboard,22{ENTER},2363,Keyboard,02{/}07{/}2000{ENTER},7064,Associates,Button,14,Button,Yes,Button,Caucasian ,Button,Female,Button,Right hand,Button,Phase1,Proc1,Superblock,1,1,1,Keyboard,Keyboard,,,,,,,,
Demo_Q_YAs,125,Younger,5,"<?xml version=""1.0""?>\n<Clock xmlns:dt=""urn:schemas-microsoft-com:datatypes""><Description dt:dt=""string"">E-Prime Primary Realtime Clock</Description><StartTime><Timestamp dt:dt=""int"">0</Timestamp><DateUtc dt:dt=""string"">2022-09-28T16:54:48Z</DateUtc></StartTime><FrequencyChanges><FrequencyChange><Frequency dt:dt=""r8"">10000000</Frequency><Timestamp dt:dt=""r8"">977489505315</Timestamp><Current dt:dt=""r8"">0</Current><DateUtc dt:dt=""string"">2022-09-28T16:54:48Z</DateUtc></FrequencyChange></FrequencyChanges></Clock>\n",Demo_Q_YAs-125-5,75.011,1.0.0.66,1,-1760341570,1,Full,3.0.3.80,3.0.3.80,9/28/2022,9/28/2022 16:54,12:54:48,3.0.3.82,Keyboard,1,Keyboard,18{ENTER},2440,Keyboard,07{/}29{/}2004{ENTER},7580,Diploma/GED,Button,12,Button,Yes,Button,Caucasian ,Button,Female,Button,Right hand,Button,Phase1,Proc1,Superblock,1,1,1,Keyboard,Keyboard,,,,,,,,
Demo_Q_YAs,126,Younger,1,"<?xml version=""1.0""?>\n<Clock xmlns:dt=""urn:schemas-microsoft-com:datatypes""><Description dt:dt=""string"">E-Prime Primary Realtime Clock</Description><StartTime><Timestamp dt:dt=""int"">0</Timestamp><DateUtc dt:dt=""string"">2022-10-03T17:04:22Z</DateUtc></StartTime><FrequencyChanges><FrequencyChange><Frequency dt:dt=""r8"">10000000</Frequency><Timestamp dt:dt=""r8"">4289143586252</Timestamp><Current dt:dt=""r8"">0</Current><DateUtc dt:dt=""string"">2022-10-03T17:04:22Z</DateUtc></FrequencyChange></FrequencyChanges></Clock>\n",Demo_Q_YAs-126-1,75.027,1.0.0.66,1,-1526154655,1,Full,3.0.3.80,3.0.3.80,10/3/2022,10/3/2022,13:04:22,3.0.3.82,Keyboard,1,Keyboard,18{ENTER},2649,Keyboard,09022004{ENTER},6648,Diploma/GED,Button,12,Button,Yes,Button,Caucasian ,Button,Female,Button,Right hand,Button,Phase1,Proc1,Superblock,1,1,1,Keyboard,Keyboard,,,,,,,,
Demo_Q_YAs,127,Younger,2,"<?xml version=""1.0""?>\n<Clock xmlns:dt=""urn:schemas-microsoft-com:datatypes""><Description dt:dt=""string"">E-Prime Primary Realtime Clock</Description><StartTime><Timestamp dt:dt=""int"">0</Timestamp><DateUtc dt:dt=""string"">2022-10-07T16:35:24Z</DateUtc></StartTime><FrequencyChanges><FrequencyChange><Frequency dt:dt=""r8"">10000000</Frequency><Timestamp dt:dt=""r8"">1700776223777</Timestamp><Current dt:dt=""r8"">0</Current><DateUtc dt:dt=""string"">2022-10-07T16:35:24Z</DateUtc></FrequencyChange></FrequencyChanges></Clock>\n",Demo_Q_YAs-127-2,75.013,1.0.0.66,1,-28211878,1,Full,3.0.3.80,3.0.3.80,10/7/2022,10/7/2022,12:35:25,3.0.3.82,Keyboard,1,Keyboard,20{ENTER},2714,Keyboard,08232002{ENTER},7210,Diploma/GED,Button,13,Button,Yes,Button,Asian or Pacific Islander,Button,Female,Button,Left hand ,Button,Phase1,Proc1,Superblock,1,1,1,Keyboard,Keyboard,,,,,,,,
Demo_Q_YAs,128,Younger,3,"<?xml version=""1.0""?>\n<Clock xmlns:dt=""urn:schemas-microsoft-com:datatypes""><Description dt:dt=""string"">E-Prime Primary Realtime Clock</Description><StartTime><Timestamp dt:dt=""int"">0</Timestamp><DateUtc dt:dt=""string"">2022-10-14T16:30:51Z</DateUtc></StartTime><FrequencyChanges><FrequencyChange><Frequency dt:dt=""r8"">10000000</Frequency><Timestamp dt:dt=""r8"">1699723724946</Timestamp><Current dt:dt=""r8"">0</Current><DateUtc dt:dt=""string"">2022-10-14T16:30:51Z</DateUtc></FrequencyChange></FrequencyChanges></Clock>\n",Demo_Q_YAs-128-3,75.007,1.0.0.66,1,-1080660005,1,Full,3.0.3.80,3.0.3.80,10/14/2022,10/14/2022 16:30,12:30:52,3.0.3.82,Keyboard,1,Keyboard,18{ENTER},2570,Keyboard,02{/}23{/}2004{ENTER},10062,Diploma/GED,Button,12,Button,Yes,Button,Caucasian ,Button,Male,Button,Right hand,Button,Phase1,Proc1,Superblock,1,1,1,Keyboard,Keyboard,,,,,,,,
Demo_Q_YAs,129,Younger,4,"<?xml version=""1.0""?>\n<Clock xmlns:dt=""urn:schemas-microsoft-com:datatypes""><Description dt:dt=""string"">E-Prime Primary Realtime Clock</Description><StartTime><Timestamp dt:dt=""int"">0</Timestamp><DateUtc dt:dt=""string"">2022-10-17T19:11:41Z</DateUtc></StartTime><FrequencyChanges><FrequencyChange><Frequency dt:dt=""r8"">10000000</Frequency><Timestamp dt:dt=""r8"">2653851814057</Timestamp><Current dt:dt=""r8"">0</Current><DateUtc dt:dt=""string"">2022-10-17T19:11:41Z</DateUtc></FrequencyChange></FrequencyChanges></Clock>\n",Demo_Q_YAs-129-4,75.007,1.0.0.66,1,-435048884,1,Full,3.0.3.80,3.0.3.80,10/17/2022,10/17/2022 19:11,15:11:41,3.0.3.82,Keyboard,1,Keyboard,19{ENTER},2327,Keyboard,01242003{ENTER},12071,Diploma/GED,Button,13,Button,Yes,Button,Caucasian ,Button,Female,Button,Right hand,Button,Phase1,Proc1,Superblock,1,1,1,Keyboard,Keyboard,,,,,,,,
Demo_Q_YAs,130,Younger,5,"<?xml version=""1.0""?>\n<Clock xmlns:dt=""urn:schemas-microsoft-com:datatypes""><Description dt:dt=""string"">E-Prime Primary Realtime Clock</Description><StartTime><Timestamp dt:dt=""int"">0</Timestamp><DateUtc dt:dt=""string"">2022-10-18T13:52:51Z</DateUtc></StartTime><FrequencyChanges><FrequencyChange><Frequency dt:dt=""r8"">10000000</Frequency><Timestamp dt:dt=""r8"">637708575807</Timestamp><Current dt:dt=""r8"">0</Current><DateUtc dt:dt=""string"">2022-10-18T13:52:51Z</DateUtc></FrequencyChange></FrequencyChanges></Clock>\n",Demo_Q_YAs-130-5,75.022,1.0.0.66,1,2056105657,1,Full,3.0.3.80,3.0.3.80,10/18/2022,10/18/2022 13:52,9:52:51,3.0.3.82,Keyboard,1,Keyboard,18{ENTER},2479,Keyboard,12222003{ENTER},4895,Diploma/GED,Button,12,Button,Yes,Button,Caucasian |African American|Asian or Pacific Islander|American Indian or Native American,Button,Female,Button,Right hand,Button,Phase1,Proc1,Superblock,1,1,1,Keyboard,Keyboard,,,,,,,,
Demo_Q_YAs,131,Younger,1,"<?xml version=""1.0""?>\n<Clock xmlns:dt=""urn:schemas-microsoft-com:datatypes""><Description dt:dt=""string"">E-Prime Primary Realtime Clock</Description><StartTime><Timestamp dt:dt=""int"">0</Timestamp><DateUtc dt:dt=""string"">2022-10-19T13:02:28Z</DateUtc></StartTime><FrequencyChanges><FrequencyChange><Frequency dt:dt=""r8"">10000000</Frequency><Timestamp dt:dt=""r8"">801888274630</Timestamp><Current dt:dt=""r8"">0</Current><DateUtc dt:dt=""string"">2022-10-19T13:02:28Z</DateUtc></FrequencyChange></FrequencyChanges></Clock>\n",Demo_Q_YAs-131-1,75.013,1.0.0.66,1,-1268113114,1,Full,3.0.3.80,3.0.3.80,10/19/2022,10/19/2022 13:02,9:02:29,3.0.3.82,Keyboard,1,Keyboard,18{ENTER},3578,Keyboard,08292004{ENTER},9875,Diploma/GED,Button,13,Button,Yes,Button,Caucasian ,Button,Female,Button,Right hand,Button,Phase1,Proc1,Superblock,1,1,1,Keyboard,Keyboard,,,,,,,,
Demo_Q_YAs,132,Younger,2,"<?xml version=""1.0""?>\n<Clock xmlns:dt=""urn:schemas-microsoft-com:datatypes""><Description dt:dt=""string"">E-Prime Primary Realtime Clock</Description><StartTime><Timestamp dt:dt=""int"">0</Timestamp><DateUtc dt:dt=""string"">2022-10-19T16:56:48Z</DateUtc></StartTime><FrequencyChanges><FrequencyChange><Frequency dt:dt=""r8"">10000000</Frequency><Timestamp dt:dt=""r8"">942487470419</Timestamp><Current dt:dt=""r8"">0</Current><DateUtc dt:dt=""string"">2022-10-19T16:56:48Z</DateUtc></FrequencyChange></FrequencyChanges></Clock>\n",Demo_Q_YAs-132-2,75.011,1.0.0.66,1,1892298189,1,Full,3.0.3.80,3.0.3.80,10/19/2022,10/19/2022 16:56,12:56:49,3.0.3.82,Keyboard,1,Keyboard,18{ENTER},2099,Keyboard,10{/}20{/}2003{ENTER},8272,Diploma/GED,Button,12,Button,Yes,Button,Caucasian ,Button,Male,Button,Right hand,Button,Phase1,Proc1,Superblock,1,1,1,Keyboard,Keyboard,,,,,,,,
Demo_Q_YAs,133,Younger,1,"<?xml version=""1.0""?>\n<Clock xmlns:dt=""urn:schemas-microsoft-com:datatypes""><Description dt:dt=""string"">E-Prime Primary Realtime Clock</Description><StartTime><Timestamp dt:dt=""int"">0</Timestamp><DateUtc dt:dt=""string"">2022-10-21T17:18:51Z</DateUtc></StartTime><FrequencyChanges><FrequencyChange><Frequency dt:dt=""r8"">10000000</Frequency><Timestamp dt:dt=""r8"">3596597839355</Timestamp><Current dt:dt=""r8"">0</Current><DateUtc dt:dt=""string"">2022-10-21T17:18:51Z</DateUtc></FrequencyChange></FrequencyChanges></Clock>\n",Demo_Q_YAs-133-1,75.03,1.0.0.66,1,1713200633,1,Full,3.0.3.80,3.0.3.80,10/21/2022,10/21/2022 17:18,13:18:52,3.0.3.82,Keyboard,1,Keyboard,18{ENTER},2312,Keyboard,12302003{ENTER},9482,Diploma/GED,Button,12,Button,Yes,Button,Caucasian ,Button,Female,Button,Right hand,Button,Phase1,Proc1,Superblock,1,1,1,Keyboard,Keyboard,,,,,,,,
Demo_Q_YAs,134,Younger,4,"<?xml version=""1.0""?>\n<Clock xmlns:dt=""urn:schemas-microsoft-com:datatypes""><Description dt:dt=""string"">E-Prime Primary Realtime Clock</Description><StartTime><Timestamp dt:dt=""int"">0</Timestamp><DateUtc dt:dt=""string"">2022-10-21T18:34:15Z</DateUtc></StartTime><FrequencyChanges><FrequencyChange><Frequency dt:dt=""r8"">10000000</Frequency><Timestamp dt:dt=""r8"">1051863485533</Timestamp><Current dt:dt=""r8"">0</Current><DateUtc dt:dt=""string"">2022-10-21T18:34:15Z</DateUtc></FrequencyChange></FrequencyChanges></Clock>\n",Demo_Q_YAs-134-4,75.013,1.0.0.66,1,-400955225,1,Full,3.0.3.80,3.0.3.80,10/21/2022,10/21/2022 18:34,14:34:15,3.0.3.82,Keyboard,1,Keyboard,19{ENTER},1778,Keyboard,04{/}04{/}2003{ENTER},8485,Diploma/GED,Button,12,Button,Yes,Button,African American,Button,Female,Button,Right hand,Button,Phase1,Proc1,Superblock,1,1,1,Keyboard,Keyboard,,,,,,,,
Demo_Q_YAs,135,Younger,5,"<?xml version=""1.0""?>\n<Clock xmlns:dt=""urn:schemas-microsoft-com:datatypes""><Description dt:dt=""string"">E-Prime Primary Realtime Clock</Description><StartTime><Timestamp dt:dt=""int"">0</Timestamp><DateUtc dt:dt=""string"">2022-10-24T16:57:30Z</DateUtc></StartTime><FrequencyChanges><FrequencyChange><Frequency dt:dt=""r8"">10000000</Frequency><Timestamp dt:dt=""r8"">2496663018011</Timestamp><Current dt:dt=""r8"">0</Current><DateUtc dt:dt=""string"">2022-10-24T16:57:30Z</DateUtc></FrequencyChange></FrequencyChanges></Clock>\n",Demo_Q_YAs-135-5,75.006,1.0.0.66,1,1289575164,1,Full,3.0.3.80,3.0.3.80,10/24/2022,10/24/2022 16:57,12:57:30,3.0.3.82,Keyboard,1,Keyboard,18{ENTER},2162,Keyboard,12{SHIFT}{/}08{/}2003{ENTER},15866,Diploma/GED,Button,12,Button,Yes,Button,Caucasian ,Button,Gender Diverse,Button,Left hand ,Button,Phase1,Proc1,Superblock,1,1,1,Keyboard,Keyboard,,,,,,,,
Demo_Q_YAs,136,Younger,1,"<?xml version=""1.0""?>\n<Clock xmlns:dt=""urn:schemas-microsoft-com:datatypes""><Description dt:dt=""string"">E-Prime Primary Realtime Clock</Description><StartTime><Timestamp dt:dt=""int"">0</Timestamp><DateUtc dt:dt=""string"">2022-10-24T19:19:53Z</DateUtc></StartTime><FrequencyChanges><FrequencyChange><Frequency dt:dt=""r8"">10000000</Frequency><Timestamp dt:dt=""r8"">2582096250660</Timestamp><Current dt:dt=""r8"">0</Current><DateUtc dt:dt=""string"">2022-10-24T19:19:53Z</DateUtc></FrequencyChange></FrequencyChanges></Clock>\n",Demo_Q_YAs-136-1,75.017,1.0.0.66,1,823615331,1,Full,3.0.3.80,3.0.3.80,10/24/2022,10/24/2022 19:19,15:19:53,3.0.3.82,Keyboard,1,Keyboard,18{ENTER},2755,Keyboard,03172004{ENTER},7805,Diploma/GED,Button,12,Button,Yes,Button,African American,Button,Male,Button,Right hand,Button,Phase1,Proc1,Superblock,1,1,1,Keyboard,Keyboard,,,,,,,,
Demo_Q_YAs,137,Younger,2,"<?xml version=""1.0""?>\n<Clock xmlns:dt=""urn:schemas-microsoft-com:datatypes""><Description dt:dt=""string"">E-Prime Primary Realtime Clock</Description><StartTime><Timestamp dt:dt=""int"">0</Timestamp><DateUtc dt:dt=""string"">2022-10-25T14:00:58Z</DateUtc></StartTime><FrequencyChanges><FrequencyChange><Frequency dt:dt=""r8"">10000000</Frequency><Timestamp dt:dt=""r8"">642337858357</Timestamp><Current dt:dt=""r8"">0</Current><DateUtc dt:dt=""string"">2022-10-25T14:00:58Z</DateUtc></FrequencyChange></FrequencyChanges></Clock>\n",Demo_Q_YAs-137-2,75.007,1.0.0.66,1,-1904620554,1,Full,3.0.3.80,3.0.3.80,10/25/2022,10/25/2022 14:00,10:00:58,3.0.3.82,Keyboard,1,Keyboard,18{ENTER},1952,Keyboard,10{/}08{/}2004{ENTER},8202,Diploma/GED,Button,12,Button,Yes,Button,Caucasian ,Button,Female,Button,Right hand,Button,Phase1,Proc1,Superblock,1,1,1,Keyboard,Keyboard,,,,,,,,
Demo_Q_YAs,138,Younger,3,"<?xml version=""1.0""?>\n<Clock xmlns:dt=""urn:schemas-microsoft-com:datatypes""><Description dt:dt=""string"">E-Prime Primary Realtime Clock</Description><StartTime><Timestamp dt:dt=""int"">0</Timestamp><DateUtc dt:dt=""string"">2022-10-25T17:03:34Z</DateUtc></StartTime><FrequencyChanges><FrequencyChange><Frequency dt:dt=""r8"">10000000</Frequency><Timestamp dt:dt=""r8"">751895525615</Timestamp><Current dt:dt=""r8"">0</Current><DateUtc dt:dt=""string"">2022-10-25T17:03:34Z</DateUtc></FrequencyChange></FrequencyChanges></Clock>\n",Demo_Q_YAs-138-3,75.013,1.0.0.66,1,278794994,1,Full,3.0.3.80,3.0.3.80,10/25/2022,10/25/2022 17:03,13:03:34,3.0.3.82,Keyboard,1,Keyboard,18{ENTER},3066,Keyboard,11{/}16{/}2003{ENTER},16219,Diploma/GED,Button,12,Button,Yes,Button,African American,Button,Female,Button,Right hand,Button,Phase1,Proc1,Superblock,1,1,1,Keyboard,Keyboard,,,,,,,,
Demo_Q_YAs,139,Younger,4,"<?xml version=""1.0""?>\n<Clock xmlns:dt=""urn:schemas-microsoft-com:datatypes""><Description dt:dt=""string"">E-Prime Primary Realtime Clock</Description><StartTime><Timestamp dt:dt=""int"">0</Timestamp><DateUtc dt:dt=""string"">2022-10-26T13:05:27Z</DateUtc></StartTime><FrequencyChanges><FrequencyChange><Frequency dt:dt=""r8"">10000000</Frequency><Timestamp dt:dt=""r8"">1473029225254</Timestamp><Current dt:dt=""r8"">0</Current><DateUtc dt:dt=""string"">2022-10-26T13:05:27Z</DateUtc></FrequencyChange></FrequencyChanges></Clock>\n",Demo_Q_YAs-139-4,75.014,1.0.0.66,1,-141928725,1,Full,3.0.3.80,3.0.3.80,10/26/2022,10/26/2022 13:05,9:05:28,3.0.3.82,Keyboard,1,Keyboard,19{ENTER},3196,Keyboard,12{/}29{/}2002{ENTER},10877,Diploma/GED,Button,13,Button,Yes,Button,Caucasian ,Button,Male,Button,Right hand,Button,Phase1,Proc1,Superblock,1,1,1,Keyboard,Keyboard,,,,,,,,
Demo_Q_YAs,140,Younger,5,"<?xml version=""1.0""?>\n<Clock xmlns:dt=""urn:schemas-microsoft-com:datatypes""><Description dt:dt=""string"">E-Prime Primary Realtime Clock</Description><StartTime><Timestamp dt:dt=""int"">0</Timestamp><DateUtc dt:dt=""string"">2022-10-26T16:58:08Z</DateUtc></StartTime><FrequencyChanges><FrequencyChange><Frequency dt:dt=""r8"">10000000</Frequency><Timestamp dt:dt=""r8"">1612633182925</Timestamp><Current dt:dt=""r8"">0</Current><DateUtc dt:dt=""string"">2022-10-26T16:58:08Z</DateUtc></FrequencyChange></FrequencyChanges></Clock>\n",Demo_Q_YAs-140-5,75.008,1.0.0.66,1,2023085875,1,Full,3.0.3.80,3.0.3.80,10/26/2022,10/26/2022 16:58,12:58:08,3.0.3.82,Keyboard,1,Keyboard,19{ENTER},2602,Keyboard,07{/}17{/}2003{ENTER},12568,Diploma/GED,Button,14,Button,Yes,Button,Caucasian |Hispanic or Latino,Button,Male,Button,Right hand,Button,Phase1,Proc1,Superblock,1,1,1,Keyboard,Keyboard,,,,,,,,
Demo_Q_YAs,141,Younger,1,"<?xml version=""1.0""?>\n<Clock xmlns:dt=""urn:schemas-microsoft-com:datatypes""><Description dt:dt=""string"">E-Prime Primary Realtime Clock</Description><StartTime><Timestamp dt:dt=""int"">0</Timestamp><DateUtc dt:dt=""string"">2022-10-27T13:00:25Z</DateUtc></StartTime><FrequencyChanges><FrequencyChange><Frequency dt:dt=""r8"">10000000</Frequency><Timestamp dt:dt=""r8"">684532994522</Timestamp><Current dt:dt=""r8"">0</Current><DateUtc dt:dt=""string"">2022-10-27T13:00:25Z</DateUtc></FrequencyChange></FrequencyChanges></Clock>\n",Demo_Q_YAs-141-1,75.003,1.0.0.66,1,1635695831,1,Full,3.0.3.80,3.0.3.80,10/27/2022,10/27/2022 13:00,9:00:26,3.0.3.82,Keyboard,1,Keyboard,19{ENTER},3085,Keyboard,06262003{ENTER},13690,Diploma/GED,Button,13,Button,Yes,Button,Caucasian |American Indian or Native American,Button,Female,Button,Right hand,Button,Phase1,Proc1,Superblock,1,1,1,Keyboard,Keyboard,,,,,,,,
Demo_Q_YAs,142,Younger,2,"<?xml version=""1.0""?>\n<Clock xmlns:dt=""urn:schemas-microsoft-com:datatypes""><Description dt:dt=""string"">E-Prime Primary Realtime Clock</Description><StartTime><Timestamp dt:dt=""int"">0</Timestamp><DateUtc dt:dt=""string"">2022-10-28T16:42:06Z</DateUtc></StartTime><FrequencyChanges><FrequencyChange><Frequency dt:dt=""r8"">10000000</Frequency><Timestamp dt:dt=""r8"">959142499074</Timestamp><Current dt:dt=""r8"">0</Current><DateUtc dt:dt=""string"">2022-10-28T16:42:06Z</DateUtc></FrequencyChange></FrequencyChanges></Clock>\n",Demo_Q_YAs-142-2,75.028,1.0.0.66,1,1367460404,1,Full,3.0.3.80,3.0.3.80,10/28/2022,10/28/2022 16:42,12:42:06,3.0.3.82,Keyboard,1,Keyboard,18{ENTER},1724,Keyboard,06242004{ENTER},4612,Diploma/GED,Button,12,Button,Yes,Button,African American,Button,Female,Button,Left hand ,Button,Phase1,Proc1,Superblock,1,1,1,Keyboard,Keyboard,,,,,,,,
Demo_Q_YAs,143,Younger,3,"<?xml version=""1.0""?>\n<Clock xmlns:dt=""urn:schemas-microsoft-com:datatypes""><Description dt:dt=""string"">E-Prime Primary Realtime Clock</Description><StartTime><Timestamp dt:dt=""int"">0</Timestamp><DateUtc dt:dt=""string"">2022-10-28T17:06:30Z</DateUtc></StartTime><FrequencyChanges><FrequencyChange><Frequency dt:dt=""r8"">10000000</Frequency><Timestamp dt:dt=""r8"">9637203436585</Timestamp><Current dt:dt=""r8"">0</Current><DateUtc dt:dt=""string"">2022-10-28T17:06:30Z</DateUtc></FrequencyChange></FrequencyChanges></Clock>\n",Demo_Q_YAs-143-3,75.012,1.0.0.66,1,-700229336,1,Full,3.0.3.80,3.0.3.80,10/28/2022,10/28/2022 17:06,13:06:30,3.0.3.82,Keyboard,1,Keyboard,18{ENTER},2966,Keyboard,07{/}16{/}2004{ENTER},11230,Diploma/GED,Button,12,Button,Yes,Button,Caucasian ,Button,Female,Button,Right hand,Button,Phase1,Proc1,Superblock,1,1,1,Keyboard,Keyboard,,,,,,,,
Demo_Q_YAs,144,Younger,4,"<?xml version=""1.0""?>\n<Clock xmlns:dt=""urn:schemas-microsoft-com:datatypes""><Description dt:dt=""string"">E-Prime Primary Realtime Clock</Description><StartTime><Timestamp dt:dt=""int"">0</Timestamp><DateUtc dt:dt=""string"">2022-10-31T16:59:02Z</DateUtc></StartTime><FrequencyChanges><FrequencyChange><Frequency dt:dt=""r8"">10000000</Frequency><Timestamp dt:dt=""r8"">3561364725554</Timestamp><Current dt:dt=""r8"">0</Current><DateUtc dt:dt=""string"">2022-10-31T16:59:02Z</DateUtc></FrequencyChange></FrequencyChanges></Clock>\n",Demo_Q_YAs-144-4,75.016,1.0.0.66,1,839395331,1,Full,3.0.3.80,3.0.3.80,10/31/2022,10/31/2022 16:59,12:59:03,3.0.3.82,Keyboard,1,Keyboard,20{ENTER},1934,Keyboard,06242002{ENTER},5774,Diploma/GED,Button,14,Button,Yes,Button,Caucasian ,Button,Female,Button,Right hand,Button,Phase1,Proc1,Superblock,1,1,1,Keyboard,Keyboard,,,,,,,,
Demo_Q_YAs,145,Younger,5,"<?xml version=""1.0""?>\n<Clock xmlns:dt=""urn:schemas-microsoft-com:datatypes""><Description dt:dt=""string"">E-Prime Primary Realtime Clock</Description><StartTime><Timestamp dt:dt=""int"">0</Timestamp><DateUtc dt:dt=""string"">2022-10-31T19:22:49Z</DateUtc></StartTime><FrequencyChanges><FrequencyChange><Frequency dt:dt=""r8"">10000000</Frequency><Timestamp dt:dt=""r8"">3647639814996</Timestamp><Current dt:dt=""r8"">0</Current><DateUtc dt:dt=""string"">2022-10-31T19:22:49Z</DateUtc></FrequencyChange></FrequencyChanges></Clock>\n",Demo_Q_YAs-145-5,75.011,1.0.0.66,1,1215209522,1,Full,3.0.3.80,3.0.3.80,10/31/2022,10/31/2022 19:22,15:22:49,3.0.3.82,Keyboard,1,Keyboard,18{ENTER},1987,Keyboard,11252003{ENTER},7752,Diploma/GED,Button,12,Button,Yes,Button,African American,Button,Female,Button,Right hand,Button,Phase1,Proc1,Superblock,1,1,1,Keyboard,Keyboard,,,,,,,,
Demo_Q_YAs,146,Younger,1,"<?xml version=""1.0""?>\n<Clock xmlns:dt=""urn:schemas-microsoft-com:datatypes""><Description dt:dt=""string"">E-Prime Primary Realtime Clock</Description><StartTime><Timestamp dt:dt=""int"">0</Timestamp><DateUtc dt:dt=""string"">2022-11-01T14:02:16Z</DateUtc></StartTime><FrequencyChanges><FrequencyChange><Frequency dt:dt=""r8"">10000000</Frequency><Timestamp dt:dt=""r8"">636211557891</Timestamp><Current dt:dt=""r8"">0</Current><DateUtc dt:dt=""string"">2022-11-01T14:02:16Z</DateUtc></FrequencyChange></FrequencyChanges></Clock>\n",Demo_Q_YAs-146-1,75.015,1.0.0.66,1,558860480,1,Full,3.0.3.80,3.0.3.80,11/1/2022,11/1/2022,10:02:17,3.0.3.82,Keyboard,1,Keyboard,20{ENTER},2974,Keyboard,02062002{ENTER},9360,Diploma/GED,Button,14,Button,Yes,Button,African American,Button,Female,Button,Right hand,Button,Phase1,Proc1,Superblock,1,1,1,Keyboard,Keyboard,,,,,,,,
Demo_Q_YAs,147,Younger,2,"<?xml version=""1.0""?>\n<Clock xmlns:dt=""urn:schemas-microsoft-com:datatypes""><Description dt:dt=""string"">E-Prime Primary Realtime Clock</Description><StartTime><Timestamp dt:dt=""int"">0</Timestamp><DateUtc dt:dt=""string"">2022-11-01T16:57:22Z</DateUtc></StartTime><FrequencyChanges><FrequencyChange><Frequency dt:dt=""r8"">10000000</Frequency><Timestamp dt:dt=""r8"">68106102581</Timestamp><Current dt:dt=""r8"">0</Current><DateUtc dt:dt=""string"">2022-11-01T16:57:22Z</DateUtc></FrequencyChange></FrequencyChanges></Clock>\n",Demo_Q_YAs-147-2,75.025,1.0.0.66,1,-610797796,1,Full,3.0.3.80,3.0.3.80,11/1/2022,11/1/2022,12:57:22,3.0.3.82,Keyboard,1,Keyboard,19{ENTER},1966,Keyboard,07012003{ENTER},6374,Diploma/GED,Button,13,Button,Yes,Button,Caucasian ,Button,Female,Button,Left hand ,Button,Phase1,Proc1,Superblock,1,1,1,Keyboard,Keyboard,,,,,,,,
Demo_Q_YAs,148,Younger,3,"<?xml version=""1.0""?>\n<Clock xmlns:dt=""urn:schemas-microsoft-com:datatypes""><Description dt:dt=""string"">E-Prime Primary Realtime Clock</Description><StartTime><Timestamp dt:dt=""int"">0</Timestamp><DateUtc dt:dt=""string"">2022-11-02T13:05:12Z</DateUtc></StartTime><FrequencyChanges><FrequencyChange><Frequency dt:dt=""r8"">10000000</Frequency><Timestamp dt:dt=""r8"">792805445029</Timestamp><Current dt:dt=""r8"">0</Current><DateUtc dt:dt=""string"">2022-11-02T13:05:12Z</DateUtc></FrequencyChange></FrequencyChanges></Clock>\n",Demo_Q_YAs-148-3,75.009,1.0.0.66,1,-1760984686,1,Full,3.0.3.80,3.0.3.80,11/2/2022,11/2/2022,9:05:12,3.0.3.82,Keyboard,1,Keyboard,18{ENTER},2667,Keyboard,09{/}03{/}2004{ENTER},8131,Diploma/GED,Button,12,Button,Yes,Button,Caucasian ,Button,Male,Button,Right hand,Button,Phase1,Proc1,Superblock,1,1,1,Keyboard,Keyboard,,,,,,,,
Demo_Q_YAs,149,Younger,4,"<?xml version=""1.0""?>\n<Clock xmlns:dt=""urn:schemas-microsoft-com:datatypes""><Description dt:dt=""string"">E-Prime Primary Realtime Clock</Description><StartTime><Timestamp dt:dt=""int"">0</Timestamp><DateUtc dt:dt=""string"">2022-11-03T13:03:48Z</DateUtc></StartTime><FrequencyChanges><FrequencyChange><Frequency dt:dt=""r8"">10000000</Frequency><Timestamp dt:dt=""r8"">712549682732</Timestamp><Current dt:dt=""r8"">0</Current><DateUtc dt:dt=""string"">2022-11-03T13:03:48Z</DateUtc></FrequencyChange></FrequencyChanges></Clock>\n",Demo_Q_YAs-149-4,75.008,1.0.0.66,1,-412313316,1,Full,3.0.3.80,3.0.3.80,11/3/2022,11/3/2022,9:03:48,3.0.3.82,Keyboard,1,Keyboard,18{ENTER},2503,Keyboard,03302004{ENTER},3994,Diploma/GED,Button,12,Button,Yes,Button,Hispanic or Latino,Button,Female,Button,Right hand,Button,Phase1,Proc1,Superblock,1,1,1,Keyboard,Keyboard,,,,,,,,
Demo_Q_YAs,150,Younger,5,"<?xml version=""1.0""?>\n<Clock xmlns:dt=""urn:schemas-microsoft-com:datatypes""><Description dt:dt=""string"">E-Prime Primary Realtime Clock</Description><StartTime><Timestamp dt:dt=""int"">0</Timestamp><DateUtc dt:dt=""string"">2022-11-04T16:31:36Z</DateUtc></StartTime><FrequencyChanges><FrequencyChange><Frequency dt:dt=""r8"">10000000</Frequency><Timestamp dt:dt=""r8"">953067427449</Timestamp><Current dt:dt=""r8"">0</Current><DateUtc dt:dt=""string"">2022-11-04T16:31:36Z</DateUtc></FrequencyChange></FrequencyChanges></Clock>\n",Demo_Q_YAs-150-5,75.007,1.0.0.66,1,-412745829,1,Full,3.0.3.80,3.0.3.80,11/4/2022,11/4/2022,12:31:36,3.0.3.82,Keyboard,1,Keyboard,18{ENTER},2565,Keyboard,05182004{ENTER},10525,Diploma/GED,Button,12,Button,Yes,Button,African American,Button,Female,Button,Right hand,Button,Phase1,Proc1,Superblock,1,1,1,Keyboard,Keyboard,,,,,,,,
Demo_Q_YAs,151,Younger,1,"<?xml version=""1.0""?>\n<Clock xmlns:dt=""urn:schemas-microsoft-com:datatypes""><Description dt:dt=""string"">E-Prime Primary Realtime Clock</Description><StartTime><Timestamp dt:dt=""int"">0</Timestamp><DateUtc dt:dt=""string"">2022-11-04T17:14:06Z</DateUtc></StartTime><FrequencyChanges><FrequencyChange><Frequency dt:dt=""r8"">10000000</Frequency><Timestamp dt:dt=""r8"">15689813729682</Timestamp><Current dt:dt=""r8"">0</Current><DateUtc dt:dt=""string"">2022-11-04T17:14:06Z</DateUtc></FrequencyChange></FrequencyChanges></Clock>\n",Demo_Q_YAs-151-1,75.024,1.0.0.66,1,300798026,1,Full,3.0.3.80,3.0.3.80,11/4/2022,11/4/2022,13:14:07,3.0.3.82,Keyboard,1,Keyboard,18{ENTER},2167,Keyboard,04292004{ENTER},6961,Diploma/GED,Button,12,Button,Yes,Button,American Indian or Native American,Button,Male,Button,Right hand,Button,Phase1,Proc1,Superblock,1,1,1,Keyboard,Keyboard,,,,,,,,
Demo_Q_YAs,152,Younger,2,"<?xml version=""1.0""?>\n<Clock xmlns:dt=""urn:schemas-microsoft-com:datatypes""><Description dt:dt=""string"">E-Prime Primary Realtime Clock</Description><StartTime><Timestamp dt:dt=""int"">0</Timestamp><DateUtc dt:dt=""string"">2022-11-04T18:36:45Z</DateUtc></StartTime><FrequencyChanges><FrequencyChange><Frequency dt:dt=""r8"">10000000</Frequency><Timestamp dt:dt=""r8"">1028158947065</Timestamp><Current dt:dt=""r8"">0</Current><DateUtc dt:dt=""string"">2022-11-04T18:36:45Z</DateUtc></FrequencyChange></FrequencyChanges></Clock>\n",Demo_Q_YAs-152-2,75.03,1.0.0.66,1,1664822563,1,Full,3.0.3.80,3.0.3.80,11/4/2022,11/4/2022,14:36:46,3.0.3.82,Keyboard,1,Keyboard,18{ENTER},3986,Keyboard,09102004{ENTER},8683,Diploma/GED,Button,12,Button,Yes,Button,African American,Button,Female,Button,Right hand,Button,Phase1,Proc1,Superblock,1,1,1,Keyboard,Keyboard,,,,,,,,
Demo_Q_YAs,153,Younger,3,"<?xml version=""1.0""?>\n<Clock xmlns:dt=""urn:schemas-microsoft-com:datatypes""><Description dt:dt=""string"">E-Prime Primary Realtime Clock</Description><StartTime><Timestamp dt:dt=""int"">0</Timestamp><DateUtc dt:dt=""string"">2022-11-07T18:08:47Z</DateUtc></StartTime><FrequencyChanges><FrequencyChange><Frequency dt:dt=""r8"">10000000</Frequency><Timestamp dt:dt=""r8"">2542597636491</Timestamp><Current dt:dt=""r8"">0</Current><DateUtc dt:dt=""string"">2022-11-07T18:08:47Z</DateUtc></FrequencyChange></FrequencyChanges></Clock>\n",Demo_Q_YAs-153-3,75.029,1.0.0.66,1,-20472784,1,Full,3.0.3.80,3.0.3.80,11/7/2022,11/7/2022,13:08:47,3.0.3.82,Keyboard,1,Keyboard,20{ENTER},2935,Keyboard,09{/}10{/}2002{ENTER},10405,Diploma/GED,Button,14,Button,Yes,Button,Caucasian ,Button,Female,Button,Right hand,Button,Phase1,Proc1,Superblock,1,1,1,Keyboard,Keyboard,,,,,,,,
Demo_Q_YAs,154,Younger,4,"<?xml version=""1.0""?>\n<Clock xmlns:dt=""urn:schemas-microsoft-com:datatypes""><Description dt:dt=""string"">E-Prime Primary Realtime Clock</Description><StartTime><Timestamp dt:dt=""int"">0</Timestamp><DateUtc dt:dt=""string"">2022-11-07T20:16:26Z</DateUtc></StartTime><FrequencyChanges><FrequencyChange><Frequency dt:dt=""r8"">10000000</Frequency><Timestamp dt:dt=""r8"">2619193423940</Timestamp><Current dt:dt=""r8"">0</Current><DateUtc dt:dt=""string"">2022-11-07T20:16:26Z</DateUtc></FrequencyChange></FrequencyChanges></Clock>\n",Demo_Q_YAs-154-4,75.026,1.0.0.66,1,-733986865,1,Full,3.0.3.80,3.0.3.80,11/7/2022,11/7/2022,15:16:27,3.0.3.82,Keyboard,1,Keyboard,19{ENTER},2480,Keyboard,07{/}22{/}2003{ENTER},10668,Diploma/GED,Button,12,Button,Yes,Button,Asian or Pacific Islander,Button,Female,Button,Right hand,Button,Phase1,Proc1,Superblock,1,1,1,Keyboard,Keyboard,,,,,,,,
Demo_Q_YAs,155,Younger,5,"<?xml version=""1.0""?>\n<Clock xmlns:dt=""urn:schemas-microsoft-com:datatypes""><Description dt:dt=""string"">E-Prime Primary Realtime Clock</Description><StartTime><Timestamp dt:dt=""int"">0</Timestamp><DateUtc dt:dt=""string"">2022-11-08T18:02:47Z</DateUtc></StartTime><FrequencyChanges><FrequencyChange><Frequency dt:dt=""r8"">10000000</Frequency><Timestamp dt:dt=""r8"">751128715724</Timestamp><Current dt:dt=""r8"">0</Current><DateUtc dt:dt=""string"">2022-11-08T18:02:47Z</DateUtc></FrequencyChange></FrequencyChanges></Clock>\n",Demo_Q_YAs-155-5,75.028,1.0.0.66,1,-488041682,1,Full,3.0.3.80,3.0.3.80,11/8/2022,11/8/2022,13:02:47,3.0.3.82,Keyboard,1,Keyboard,18{ENTER},2443,Keyboard,03162004{ENTER},6158,Diploma/GED,Button,12,Button,Yes,Button,Asian or Pacific Islander,Button,Male,Button,Right hand,Button,Phase1,Proc1,Superblock,1,1,1,Keyboard,Keyboard,,,,,,,,
Demo_Q_YAs,156,Younger,1,"<?xml version=""1.0""?>\n<Clock xmlns:dt=""urn:schemas-microsoft-com:datatypes""><Description dt:dt=""string"">E-Prime Primary Realtime Clock</Description><StartTime><Timestamp dt:dt=""int"">0</Timestamp><DateUtc dt:dt=""string"">2022-11-09T13:56:49Z</DateUtc></StartTime><FrequencyChanges><FrequencyChange><Frequency dt:dt=""r8"">10000000</Frequency><Timestamp dt:dt=""r8"">1467544479790</Timestamp><Current dt:dt=""r8"">0</Current><DateUtc dt:dt=""string"">2022-11-09T13:56:49Z</DateUtc></FrequencyChange></FrequencyChanges></Clock>\n",Demo_Q_YAs-156-1,75.01,1.0.0.66,1,-1331700638,1,Full,3.0.3.80,3.0.3.80,11/9/2022,11/9/2022,8:56:49,3.0.3.82,Keyboard,1,Keyboard,19{ENTER},1807,Keyboard,07082003{ENTER},4735,Diploma/GED,Button,13,Button,Yes,Button,African American,Button,Female,Button,Right hand,Button,Phase1,Proc1,Superblock,1,1,1,Keyboard,Keyboard,,,,,,,,
Demo_Q_YAs,157,Younger,2,"<?xml version=""1.0""?>\n<Clock xmlns:dt=""urn:schemas-microsoft-com:datatypes""><Description dt:dt=""string"">E-Prime Primary Realtime Clock</Description><StartTime><Timestamp dt:dt=""int"">0</Timestamp><DateUtc dt:dt=""string"">2022-11-09T17:40:39Z</DateUtc></StartTime><FrequencyChanges><FrequencyChange><Frequency dt:dt=""r8"">10000000</Frequency><Timestamp dt:dt=""r8"">1601847543139</Timestamp><Current dt:dt=""r8"">0</Current><DateUtc dt:dt=""string"">2022-11-09T17:40:39Z</DateUtc></FrequencyChange></FrequencyChanges></Clock>\n",Demo_Q_YAs-157-2,75.018,1.0.0.66,1,-172580624,1,Full,3.0.3.80,3.0.3.80,11/9/2022,11/9/2022,12:40:39,3.0.3.82,Keyboard,1,Keyboard,19{ENTER},2887,Keyboard,09292003{ENTER},9486,Diploma/GED,Button,13,Button,Yes,Button,Asian or Pacific Islander,Button,Male,Button,Right hand,Button,Phase1,Proc1,Superblock,1,1,1,Keyboard,Keyboard,,,,,,,,
Demo_Q_YAs,158,Younger,3,"<?xml version=""1.0""?>\n<Clock xmlns:dt=""urn:schemas-microsoft-com:datatypes""><Description dt:dt=""string"">E-Prime Primary Realtime Clock</Description><StartTime><Timestamp dt:dt=""int"">0</Timestamp><DateUtc dt:dt=""string"">2022-11-10T14:04:49Z</DateUtc></StartTime><FrequencyChanges><FrequencyChange><Frequency dt:dt=""r8"">10000000</Frequency><Timestamp dt:dt=""r8"">692910352993</Timestamp><Current dt:dt=""r8"">0</Current><DateUtc dt:dt=""string"">2022-11-10T14:04:49Z</DateUtc></FrequencyChange></FrequencyChanges></Clock>\n",Demo_Q_YAs-158-3,75.004,1.0.0.66,1,1423178509,1,Full,3.0.3.80,3.0.3.80,11/10/2022,11/10/2022,9:04:50,3.0.3.82,Keyboard,1,Keyboard,18{ENTER},3773,Keyboard,02052004{ENTER},9585,Diploma/GED,Button,12,Button,Yes,Button,Caucasian ,Button,Female,Button,Right hand,Button,Phase1,Proc1,Superblock,1,1,1,Keyboard,Keyboard,,,,,,,,
Demo_Q_YAs,159,Younger,4,"<?xml version=""1.0""?>\n<Clock xmlns:dt=""urn:schemas-microsoft-com:datatypes""><Description dt:dt=""string"">E-Prime Primary Realtime Clock</Description><StartTime><Timestamp dt:dt=""int"">0</Timestamp><DateUtc dt:dt=""string"">2022-11-11T17:25:48Z</DateUtc></StartTime><FrequencyChanges><FrequencyChange><Frequency dt:dt=""r8"">10000000</Frequency><Timestamp dt:dt=""r8"">947951408395</Timestamp><Current dt:dt=""r8"">0</Current><DateUtc dt:dt=""string"">2022-11-11T17:25:48Z</DateUtc></FrequencyChange></FrequencyChanges></Clock>\n",Demo_Q_YAs-159-4,75.026,1.0.0.66,1,-1233855202,1,Full,3.0.3.80,3.0.3.80,11/11/2022,11/11/2022,12:25:48,3.0.3.82,Keyboard,1,Keyboard,18{ENTER},2443,Keyboard,05312004{ENTER},6198,Diploma/GED,Button,12,Button,Yes,Button,Caucasian |Hispanic or Latino,Button,Female,Button,Left hand ,Button,Phase1,Proc1,Superblock,1,1,1,Keyboard,Keyboard,,,,,,,,
Demo_Q_YAs,160,Younger,5,"<?xml version=""1.0""?>\n<Clock xmlns:dt=""urn:schemas-microsoft-com:datatypes""><Description dt:dt=""string"">E-Prime Primary Realtime Clock</Description><StartTime><Timestamp dt:dt=""int"">0</Timestamp><DateUtc dt:dt=""string"">2022-11-11T18:19:31Z</DateUtc></StartTime><FrequencyChanges><FrequencyChange><Frequency dt:dt=""r8"">10000000</Frequency><Timestamp dt:dt=""r8"">975305564814</Timestamp><Current dt:dt=""r8"">0</Current><DateUtc dt:dt=""string"">2022-11-11T18:19:31Z</DateUtc></FrequencyChange></FrequencyChanges></Clock>\n",Demo_Q_YAs-160-5,75.018,1.0.0.66,1,350652727,1,Full,3.0.3.80,3.0.3.80,11/11/2022,11/11/2022,13:19:31,3.0.3.82,Keyboard,1,Keyboard,19{ENTER},2443,Keyboard,10{/}31{/}2003{ENTER},9916,Diploma/GED,Button,12,Button,No,Button,Hispanic or Latino,Button,Male,Button,Right hand,Button,Phase1,Proc1,Superblock,1,1,1,Keyboard,Keyboard,,,,,,,,
Demo_Q_YAs,161,Younger,1,"<?xml version=""1.0""?>\n<Clock xmlns:dt=""urn:schemas-microsoft-com:datatypes""><Description dt:dt=""string"">E-Prime Primary Realtime Clock</Description><StartTime><Timestamp dt:dt=""int"">0</Timestamp><DateUtc dt:dt=""string"">2022-11-11T19:24:15Z</DateUtc></StartTime><FrequencyChanges><FrequencyChange><Frequency dt:dt=""r8"">10000000</Frequency><Timestamp dt:dt=""r8"">1019019484773</Timestamp><Current dt:dt=""r8"">0</Current><DateUtc dt:dt=""string"">2022-11-11T19:24:15Z</DateUtc></FrequencyChange></FrequencyChanges></Clock>\n",Demo_Q_YAs-161-1,75.026,1.0.0.66,1,1114819369,1,Full,3.0.3.80,3.0.3.80,11/11/2022,11/11/2022,14:24:15,3.0.3.82,Keyboard,1,Keyboard,19{ENTER},2582,Keyboard,08{/}05{/}2003{ENTER},12070,Diploma/GED,Button,12,Button,Yes,Button,African American,Button,Female,Button,Left hand ,Button,Phase1,Proc1,Superblock,1,1,1,Keyboard,Keyboard,,,,,,,,
Demo_Q_YAs,162,Younger,2,"<?xml version=""1.0""?>\n<Clock xmlns:dt=""urn:schemas-microsoft-com:datatypes""><Description dt:dt=""string"">E-Prime Primary Realtime Clock</Description><StartTime><Timestamp dt:dt=""int"">0</Timestamp><DateUtc dt:dt=""string"">2022-11-14T20:36:13Z</DateUtc></StartTime><FrequencyChanges><FrequencyChange><Frequency dt:dt=""r8"">10000000</Frequency><Timestamp dt:dt=""r8"">2603096783268</Timestamp><Current dt:dt=""r8"">0</Current><DateUtc dt:dt=""string"">2022-11-14T20:36:13Z</DateUtc></FrequencyChange></FrequencyChanges></Clock>\n",Demo_Q_YAs-162-2,75.014,1.0.0.66,1,349262212,1,Full,3.0.3.80,3.0.3.80,11/14/2022,11/14/2022 20:36,15:36:14,3.0.3.82,Keyboard,1,Keyboard,19{ENTER},2463,Keyboard,07{/}24{/}2003{ENTER},11466,Diploma/GED,Button,13,Button,Yes,Button,African American,Button,Male,Button,Right hand,Button,Phase1,Proc1,Superblock,1,1,1,Keyboard,Keyboard,,,,,,,,
Demo_Q_YAs,163,Younger,3,"<?xml version=""1.0""?>\n<Clock xmlns:dt=""urn:schemas-microsoft-com:datatypes""><Description dt:dt=""string"">E-Prime Primary Realtime Clock</Description><StartTime><Timestamp dt:dt=""int"">0</Timestamp><DateUtc dt:dt=""string"">2022-11-15T14:56:00Z</DateUtc></StartTime><FrequencyChanges><FrequencyChange><Frequency dt:dt=""r8"">10000000</Frequency><Timestamp dt:dt=""r8"">625709148911</Timestamp><Current dt:dt=""r8"">0</Current><DateUtc dt:dt=""string"">2022-11-15T14:56:00Z</DateUtc></FrequencyChange></FrequencyChanges></Clock>\n",Demo_Q_YAs-163-3,75.011,1.0.0.66,1,-1353404484,1,Full,3.0.3.80,3.0.3.80,11/15/2022,11/15/2022 14:56,9:56:00,3.0.3.82,Keyboard,1,Keyboard,19{ENTER},2418,Keyboard,10072003{ENTER},7738,Diploma/GED,Button,12,Button,Yes,Button,Caucasian ,Button,Female,Button,Right hand,Button,Phase1,Proc1,Superblock,1,1,1,Keyboard,Keyboard,,,,,,,,
Demo_Q_YAs,165,Younger,5,"<?xml version=""1.0""?>\n<Clock xmlns:dt=""urn:schemas-microsoft-com:datatypes""><Description dt:dt=""string"">E-Prime Primary Realtime Clock</Description><StartTime><Timestamp dt:dt=""int"">0</Timestamp><DateUtc dt:dt=""string"">2023-02-13T15:30:34Z</DateUtc></StartTime><FrequencyChanges><FrequencyChange><Frequency dt:dt=""r8"">10000000</Frequency><Timestamp dt:dt=""r8"">21576983589174</Timestamp><Current dt:dt=""r8"">0</Current><DateUtc dt:dt=""string"">2023-02-13T15:30:34Z</DateUtc></FrequencyChange></FrequencyChanges></Clock>\n",Demo_Q_YAs-165-5,75.01,1.0.0.66,1,-929502097,1,Full,3.0.3.80,3.0.3.80,2/13/2023,2/13/2023 15:30,10:30:35,3.0.3.82,Keyboard,1,Keyboard,25{ENTER},1466,Keyboard,08{/}20{/}1997{ENTER},10382,Diploma/GED,Button,14,Button,Yes,Button,Caucasian ,Button,Male,Button,Right hand,Button,Phase1,Proc1,Superblock,1,1,1,Keyboard,Keyboard,good,Button,good,Button,fair,Button,,Button
Demo_Q_YAs,166,Younger,1,"<?xml version=""1.0""?>\n<Clock xmlns:dt=""urn:schemas-microsoft-com:datatypes""><Description dt:dt=""string"">E-Prime Primary Realtime Clock</Description><StartTime><Timestamp dt:dt=""int"">0</Timestamp><DateUtc dt:dt=""string"">2023-02-13T14:07:46Z</DateUtc></StartTime><FrequencyChanges><FrequencyChange><Frequency dt:dt=""r8"">10000000</Frequency><Timestamp dt:dt=""r8"">21527304738533</Timestamp><Current dt:dt=""r8"">0</Current><DateUtc dt:dt=""string"">2023-02-13T14:07:46Z</DateUtc></FrequencyChange></FrequencyChanges></Clock>\n",Demo_Q_YAs-166-1,75.014,1.0.0.66,1,931227652,1,Full,3.0.3.80,3.0.3.80,2/13/2023,2/13/2023 14:07,9:07:47,3.0.3.82,Keyboard,1,Keyboard,23{ENTER},1849,Keyboard,11301999{ENTER},4263,Diploma/GED,Button,16,Button,Yes,Button,African American,Button,Female,Button,Right hand,Button,Phase1,Proc1,Superblock,1,1,1,Keyboard,Keyboard,fair,Button,good,Button,fair,Button,,Button
Demo_Q_YAs,167,Younger,2,"<?xml version=""1.0""?>\n<Clock xmlns:dt=""urn:schemas-microsoft-com:datatypes""><Description dt:dt=""string"">E-Prime Primary Realtime Clock</Description><StartTime><Timestamp dt:dt=""int"">0</Timestamp><DateUtc dt:dt=""string"">2023-02-15T14:10:17Z</DateUtc></StartTime><FrequencyChanges><FrequencyChange><Frequency dt:dt=""r8"">10000000</Frequency><Timestamp dt:dt=""r8"">23256805462530</Timestamp><Current dt:dt=""r8"">0</Current><DateUtc dt:dt=""string"">2023-02-15T14:10:17Z</DateUtc></FrequencyChange></FrequencyChanges></Clock>\n",Demo_Q_YAs-167-2,75.01,1.0.0.66,1,-439781069,1,Full,3.0.3.80,3.0.3.80,2/15/2023,2/15/2023 14:10,9:10:18,3.0.3.82,Keyboard,1,Keyboard,18{ENTER},2524,Keyboard,06{/}05{/}2004{SPACE}{ENTER},15327,Diploma/GED,Button,12,Button,Yes,Button,Asian or Pacific Islander,Button,Male,Button,Right hand,Button,Phase1,Proc1,Superblock,1,1,1,Keyboard,Keyboard,poor,Button,fair,Button,very good ,Button,,Button
Demo_Q_YAs,168,Younger,3,"<?xml version=""1.0""?>\n<Clock xmlns:dt=""urn:schemas-microsoft-com:datatypes""><Description dt:dt=""string"">E-Prime Primary Realtime Clock</Description><StartTime><Timestamp dt:dt=""int"">0</Timestamp><DateUtc dt:dt=""string"">2023-02-15T15:34:01Z</DateUtc></StartTime><FrequencyChanges><FrequencyChange><Frequency dt:dt=""r8"">10000000</Frequency><Timestamp dt:dt=""r8"">23307038272464</Timestamp><Current dt:dt=""r8"">0</Current><DateUtc dt:dt=""string"">2023-02-15T15:34:01Z</DateUtc></FrequencyChange></FrequencyChanges></Clock>\n",Demo_Q_YAs-168-3,75.011,1.0.0.66,1,-1746585851,1,Full,3.0.3.80,3.0.3.80,2/15/2023,2/15/2023 15:34,10:34:01,3.0.3.82,Keyboard,1,Keyboard,18{ENTER},2349,Keyboard,07{/}19{/}2004{ENTER},10172,Diploma/GED,Button,12,Button,No,Button,Hispanic or Latino,Button,Female,Button,Right hand,Button,Phase1,Proc1,Superblock,1,1,1,Keyboard,Keyboard,fair,Button,good,Button,fair,Button,,Button
Demo_Q_YAs,169,Younger,1,"<?xml version=""1.0""?>\n<Clock xmlns:dt=""urn:schemas-microsoft-com:datatypes""><Description dt:dt=""string"">E-Prime Primary Realtime Clock</Description><StartTime><Timestamp dt:dt=""int"">0</Timestamp><DateUtc dt:dt=""string"">2023-02-16T14:06:22Z</DateUtc></StartTime><FrequencyChanges><FrequencyChange><Frequency dt:dt=""r8"">10000000</Frequency><Timestamp dt:dt=""r8"">24118448282014</Timestamp><Current dt:dt=""r8"">0</Current><DateUtc dt:dt=""string"">2023-02-16T14:06:22Z</DateUtc></FrequencyChange></FrequencyChanges></Clock>\n",Demo_Q_YAs-169-1,75.02,1.0.0.66,1,-2085393394,1,Full,3.0.3.80,3.0.3.80,2/16/2023,2/16/2023 14:06,9:06:22,3.0.3.82,Keyboard,1,Keyboard,18{ENTER},2112,Keyboard,08222004{ENTER},7509,Diploma/GED,Button,12,Button,Yes,Button,African American,Button,Male,Button,Left hand ,Button,Phase1,Proc1,Superblock,1,1,1,Keyboard,Keyboard,good,Button,good,Button,good,Button,,Button
Demo_Q_YAs,170,Younger,5,"<?xml version=""1.0""?>\n<Clock xmlns:dt=""urn:schemas-microsoft-com:datatypes""><Description dt:dt=""string"">E-Prime Primary Realtime Clock</Description><StartTime><Timestamp dt:dt=""int"">0</Timestamp><DateUtc dt:dt=""string"">2023-02-16T15:33:50Z</DateUtc></StartTime><FrequencyChanges><FrequencyChange><Frequency dt:dt=""r8"">10000000</Frequency><Timestamp dt:dt=""r8"">24170930064786</Timestamp><Current dt:dt=""r8"">0</Current><DateUtc dt:dt=""string"">2023-02-16T15:33:50Z</DateUtc></FrequencyChange></FrequencyChanges></Clock>\n",Demo_Q_YAs-170-5,75.009,1.0.0.66,1,-1143319145,1,Full,3.0.3.80,3.0.3.80,2/16/2023,2/16/2023 15:33,10:33:50,3.0.3.82,Keyboard,1,Keyboard,19{ENTER},2306,Keyboard,07{/}14{/}2003{ENTER},8683,Diploma/GED,Button,14,Button,Yes,Button,African American,Button,Female,Button,Right hand,Button,Phase1,Proc1,Superblock,1,1,1,Keyboard,Keyboard,good,Button,very good,Button,good,Button,,Button
Demo_Q_YAs,171,Younger,2,"<?xml version=""1.0""?>\n<Clock xmlns:dt=""urn:schemas-microsoft-com:datatypes""><Description dt:dt=""string"">E-Prime Primary Realtime Clock</Description><StartTime><Timestamp dt:dt=""int"">0</Timestamp><DateUtc dt:dt=""string"">2023-02-16T16:59:36Z</DateUtc></StartTime><FrequencyChanges><FrequencyChange><Frequency dt:dt=""r8"">10000000</Frequency><Timestamp dt:dt=""r8"">24222387431620</Timestamp><Current dt:dt=""r8"">0</Current><DateUtc dt:dt=""string"">2023-02-16T16:59:36Z</DateUtc></FrequencyChange></FrequencyChanges></Clock>\n",Demo_Q_YAs-171-2,75.012,1.0.0.66,1,-1225465541,1,Full,3.0.3.80,3.0.3.80,2/16/2023,2/16/2023 16:59,11:59:36,3.0.3.82,Keyboard,1,Keyboard,18{ENTER},3078,Keyboard,02{/}24{/}2004{ENTER},15856,Diploma/GED,Button,12,Button,Yes,Button,African American,Button,Female,Button,Right hand,Button,Phase1,Proc1,Superblock,1,1,1,Keyboard,Keyboard,good,Button,very good,Button,very good ,Button,,Button
Demo_Q_OAs,201,Older,1,"<?xml version=""1.0""?>\n<Clock xmlns:dt=""urn:schemas-microsoft-com:datatypes""><Description dt:dt=""string"">E-Prime Primary Realtime Clock</Description><StartTime><Timestamp dt:dt=""int"">0</Timestamp><DateUtc dt:dt=""string"">2022-09-06T16:01:04Z</DateUtc></StartTime><FrequencyChanges><FrequencyChange><Frequency dt:dt=""r8"">10000000</Frequency><Timestamp dt:dt=""r8"">12111555129691</Timestamp><Current dt:dt=""r8"">0</Current><DateUtc dt:dt=""string"">2022-09-06T16:01:04Z</DateUtc></FrequencyChange></FrequencyChanges></Clock>\n",Demo_Q_OAs-201-1,75.006,1.0.0.63,1,-250020757,1,Full,3.0.3.80,3.0.3.80,9/6/2022,9/6/2022,12:01:05,3.0.3.82,Keyboard,1,Keyboard,66{ENTER},4188,Keyboard,01311956{ENTER},15808,Bachelors,Button,18,Button,Yes,Button,Caucasian ,Button,Female,Button,Right hand,Button,Phase1,Proc1,Superblock,1,1,1,Keyboard,Keyboard,good,Button,good,Button,fair,Button,,Button
Demo_Q_OAs,202,Older,2,"<?xml version=""1.0""?>\n<Clock xmlns:dt=""urn:schemas-microsoft-com:datatypes""><Description dt:dt=""string"">E-Prime Primary Realtime Clock</Description><StartTime><Timestamp dt:dt=""int"">0</Timestamp><DateUtc dt:dt=""string"">2022-09-07T15:08:27Z</DateUtc></StartTime><FrequencyChanges><FrequencyChange><Frequency dt:dt=""r8"">10000000</Frequency><Timestamp dt:dt=""r8"">12943980361164</Timestamp><Current dt:dt=""r8"">0</Current><DateUtc dt:dt=""string"">2022-09-07T15:08:27Z</DateUtc></FrequencyChange></FrequencyChanges></Clock>\n",Demo_Q_OAs-202-2,75.01,1.0.0.63,1,-1048507791,1,Full,3.0.3.80,3.0.3.80,9/7/2022,9/7/2022,11:08:27,3.0.3.82,Keyboard,1,Keyboard,72{ENTER},3361,Keyboard,07{/}14{/}1950{ENTER},14574,Diploma/GED,Button,13,Button,Yes,Button,Caucasian ,Button,Male,Button,Right hand,Button,Phase1,Proc1,Superblock,1,1,1,Keyboard,Keyboard,poor,Button,fair,Button,very good ,Button,,Button
Demo_Q_OAs,203,Older,3,"<?xml version=""1.0""?>\n<Clock xmlns:dt=""urn:schemas-microsoft-com:datatypes""><Description dt:dt=""string"">E-Prime Primary Realtime Clock</Description><StartTime><Timestamp dt:dt=""int"">0</Timestamp><DateUtc dt:dt=""string"">2022-09-07T15:43:47Z</DateUtc></StartTime><FrequencyChanges><FrequencyChange><Frequency dt:dt=""r8"">10000000</Frequency><Timestamp dt:dt=""r8"">6929937909512</Timestamp><Current dt:dt=""r8"">0</Current><DateUtc dt:dt=""string"">2022-09-07T15:43:47Z</DateUtc></FrequencyChange></FrequencyChanges></Clock>\n",Demo_Q_OAs-203-3,75.029,1.0.0.63,1,-2136753988,1,Full,3.0.3.80,3.0.3.80,9/7/2022,9/7/2022,11:43:48,3.0.3.82,Keyboard,1,Keyboard,66{ENTER},3984,Keyboard,08{/}30{/}1956{ENTER},29367,Associates,Button,17,Button,Yes,Button,African American,Button,Female,Button,Right hand,Button,Phase1,Proc1,Superblock,1,1,1,Keyboard,Keyboard,fair,Button,good,Button,fair,Button,,Button
Demo_Q_OAs,204,Older,4,"<?xml version=""1.0""?>\n<Clock xmlns:dt=""urn:schemas-microsoft-com:datatypes""><Description dt:dt=""string"">E-Prime Primary Realtime Clock</Description><StartTime><Timestamp dt:dt=""int"">0</Timestamp><DateUtc dt:dt=""string"">2022-09-08T15:04:59Z</DateUtc></StartTime><FrequencyChanges><FrequencyChange><Frequency dt:dt=""r8"">10000000</Frequency><Timestamp dt:dt=""r8"">13805895299733</Timestamp><Current dt:dt=""r8"">0</Current><DateUtc dt:dt=""string"">2022-09-08T15:04:59Z</DateUtc></FrequencyChange></FrequencyChanges></Clock>\n",Demo_Q_OAs-204-4,75.02,1.0.0.63,1,1872995828,1,Full,3.0.3.80,3.0.3.80,9/8/2022,9/8/2022,11:04:59,3.0.3.82,Keyboard,1,Keyboard,72{ENTER},2887,Keyboard,11{/}03{/}1949{ENTER},11471,Bachelors,Button,16,Button,Yes,Button,Caucasian ,Button,Male,Button,Right hand,Button,Phase1,Proc1,Superblock,1,1,1,Keyboard,Keyboard,good,Button,good,Button,good,Button,,Button
Demo_Q_OAs,205,Older,5,"<?xml version=""1.0""?>\n<Clock xmlns:dt=""urn:schemas-microsoft-com:datatypes""><Description dt:dt=""string"">E-Prime Primary Realtime Clock</Description><StartTime><Timestamp dt:dt=""int"">0</Timestamp><DateUtc dt:dt=""string"">2022-09-12T14:59:47Z</DateUtc></StartTime><FrequencyChanges><FrequencyChange><Frequency dt:dt=""r8"">10000000</Frequency><Timestamp dt:dt=""r8"">74458534928</Timestamp><Current dt:dt=""r8"">0</Current><DateUtc dt:dt=""string"">2022-09-12T14:59:47Z</DateUtc></FrequencyChange></FrequencyChanges></Clock>\n",Demo_Q_OAs-205-5,75.009,1.0.0.63,1,1446692035,1,Full,3.0.3.80,3.0.3.80,9/12/2022,9/12/2022 14:59,10:59:47,3.0.3.82,Keyboard,1,Keyboard,70{ENTER},2232,Keyboard,062451952{SPACE}{ENTER},12619,Doctorate/PhD,Button,17,Button,Yes,Button,Caucasian ,Button,Female,Button,Left hand ,Button,Phase1,Proc1,Superblock,1,1,1,Keyboard,Keyboard,good,Button,very good,Button,good,Button,,Button
Demo_Q_OAs,206,Older,1,"<?xml version=""1.0""?>\n<Clock xmlns:dt=""urn:schemas-microsoft-com:datatypes""><Description dt:dt=""string"">E-Prime Primary Realtime Clock</Description><StartTime><Timestamp dt:dt=""int"">0</Timestamp><DateUtc dt:dt=""string"">2022-09-14T14:57:03Z</DateUtc></StartTime><FrequencyChanges><FrequencyChange><Frequency dt:dt=""r8"">10000000</Frequency><Timestamp dt:dt=""r8"">1800816558405</Timestamp><Current dt:dt=""r8"">0</Current><DateUtc dt:dt=""string"">2022-09-14T14:57:03Z</DateUtc></FrequencyChange></FrequencyChanges></Clock>\n",Demo_Q_OAs-206-1,75.006,1.0.0.63,1,1227961581,1,Full,3.0.3.80,3.0.3.80,9/14/2022,9/14/2022 14:57,10:57:03,3.0.3.82,Keyboard,1,Keyboard,65{ENTER},3332,Keyboard,05{/}09{/}1957{ENTER},7985,Associates,Button,15,Button,Yes,Button,Caucasian ,Button,Female,Button,Right hand,Button,Phase1,Proc1,Superblock,1,1,1,Keyboard,Keyboard,good,Button,very good,Button,very good ,Button,,Button
Demo_Q_OAs,207,Older,2,"<?xml version=""1.0""?>\n<Clock xmlns:dt=""urn:schemas-microsoft-com:datatypes""><Description dt:dt=""string"">E-Prime Primary Realtime Clock</Description><StartTime><Timestamp dt:dt=""int"">0</Timestamp><DateUtc dt:dt=""string"">2022-09-14T17:02:12Z</DateUtc></StartTime><FrequencyChanges><FrequencyChange><Frequency dt:dt=""r8"">10000000</Frequency><Timestamp dt:dt=""r8"">1001087200449</Timestamp><Current dt:dt=""r8"">0</Current><DateUtc dt:dt=""string"">2022-09-14T17:02:12Z</DateUtc></FrequencyChange></FrequencyChanges></Clock>\n",Demo_Q_OAs-207-2,75.01,1.0.0.63,1,362376418,1,Full,3.0.3.80,3.0.3.80,9/14/2022,9/14/2022 17:02,13:02:12,3.0.3.82,Keyboard,1,Keyboard,68{ENTER},3548,Keyboard,01{/}14{/}1954{ENTER},10957,Bachelors,Button,17,Button,Yes,Button,Caucasian ,Button,Female,Button,Right hand,Button,Phase1,Proc1,Superblock,1,1,1,Keyboard,Keyboard,good,Button,very good,Button,very good ,Button,,Button
Demo_Q_OAs,208,Older,3,"<?xml version=""1.0""?>\n<Clock xmlns:dt=""urn:schemas-microsoft-com:datatypes""><Description dt:dt=""string"">E-Prime Primary Realtime Clock</Description><StartTime><Timestamp dt:dt=""int"">0</Timestamp><DateUtc dt:dt=""string"">2022-09-15T15:01:16Z</DateUtc></StartTime><FrequencyChanges><FrequencyChange><Frequency dt:dt=""r8"">10000000</Frequency><Timestamp dt:dt=""r8"">2667345727951</Timestamp><Current dt:dt=""r8"">0</Current><DateUtc dt:dt=""string"">2022-09-15T15:01:16Z</DateUtc></FrequencyChange></FrequencyChanges></Clock>\n",Demo_Q_OAs-208-3,75.01,1.0.0.63,1,173643876,1,Full,3.0.3.80,3.0.3.80,9/15/2022,9/15/2022 15:01,11:01:16,3.0.3.82,Keyboard,1,Keyboard,71{ENTER},3410,Keyboard,05061951{ENTER},9164,Bachelors,Button,16,Button,Yes,Button,African American,Button,Female,Button,Right hand,Button,Phase1,Proc1,Superblock,1,1,1,Keyboard,Keyboard,fair,Button,good,Button,fair,Button,,Button
Demo_Q_OAs,209,Older,4,"<?xml version=""1.0""?>\n<Clock xmlns:dt=""urn:schemas-microsoft-com:datatypes""><Description dt:dt=""string"">E-Prime Primary Realtime Clock</Description><StartTime><Timestamp dt:dt=""int"">0</Timestamp><DateUtc dt:dt=""string"">2022-09-22T14:53:19Z</DateUtc></StartTime><FrequencyChanges><FrequencyChange><Frequency dt:dt=""r8"">10000000</Frequency><Timestamp dt:dt=""r8"">1804685815687</Timestamp><Current dt:dt=""r8"">0</Current><DateUtc dt:dt=""string"">2022-09-22T14:53:19Z</DateUtc></FrequencyChange></FrequencyChanges></Clock>\n",Demo_Q_OAs-209-4,75.011,1.0.0.63,1,802227158,1,Full,3.0.3.80,3.0.3.80,9/22/2022,9/22/2022 14:53,10:53:20,3.0.3.82,Keyboard,1,Keyboard,70{ENTER},2443,Keyboard,04151952{ENTER},6018,Bachelors,Button,16,Button,Yes,Button,Caucasian ,Button,Female,Button,Right hand,Button,Phase1,Proc1,Superblock,1,1,1,Keyboard,Keyboard,very good ,Button,very good,Button,good,Button,,Button
Demo_Q_OAs,210,Older,5,"<?xml version=""1.0""?>\n<Clock xmlns:dt=""urn:schemas-microsoft-com:datatypes""><Description dt:dt=""string"">E-Prime Primary Realtime Clock</Description><StartTime><Timestamp dt:dt=""int"">0</Timestamp><DateUtc dt:dt=""string"">2022-09-26T17:16:02Z</DateUtc></StartTime><FrequencyChanges><FrequencyChange><Frequency dt:dt=""r8"">10000000</Frequency><Timestamp dt:dt=""r8"">5346307042110</Timestamp><Current dt:dt=""r8"">0</Current><DateUtc dt:dt=""string"">2022-09-26T17:16:02Z</DateUtc></FrequencyChange></FrequencyChanges></Clock>\n",Demo_Q_OAs-210-5,75.02,1.0.0.63,1,-924319820,1,Full,3.0.3.80,3.0.3.80,9/26/2022,9/26/2022 17:16,13:16:02,3.0.3.82,Keyboard,1,Keyboard,67{ENTER},4930,Keyboard,11071954{ENTER},11736,Diploma/GED,Button,12,Button,Yes,Button,American Indian or Native American,Button,Female,Button,Right hand,Button,Phase1,Proc1,Superblock,1,1,1,Keyboard,Keyboard,good,Button,good,Button,very good ,Button,,Button
Demo_Q_OAs,211,Older,1,"<?xml version=""1.0""?>\n<Clock xmlns:dt=""urn:schemas-microsoft-com:datatypes""><Description dt:dt=""string"">E-Prime Primary Realtime Clock</Description><StartTime><Timestamp dt:dt=""int"">0</Timestamp><DateUtc dt:dt=""string"">2022-09-28T15:02:32Z</DateUtc></StartTime><FrequencyChanges><FrequencyChange><Frequency dt:dt=""r8"">10000000</Frequency><Timestamp dt:dt=""r8"">6994207233729</Timestamp><Current dt:dt=""r8"">0</Current><DateUtc dt:dt=""string"">2022-09-28T15:02:32Z</DateUtc></FrequencyChange></FrequencyChanges></Clock>\n",Demo_Q_OAs-211-1,75.005,1.0.0.63,1,2003544292,1,Full,3.0.3.80,3.0.3.80,9/28/2022,9/28/2022 15:02,11:02:33,3.0.3.82,Keyboard,1,Keyboard,70{ENTER},5046,Keyboard,02{/}09{/}1952{ENTER},9866,Associates,Button,14,Button,Yes,Button,Caucasian ,Button,Female,Button,Left hand ,Button,Phase1,Proc1,Superblock,1,1,1,Keyboard,Keyboard,good,Button,very good,Button,very good ,Button,,Button
Demo_Q_OAs,212,Older,2,"<?xml version=""1.0""?>\n<Clock xmlns:dt=""urn:schemas-microsoft-com:datatypes""><Description dt:dt=""string"">E-Prime Primary Realtime Clock</Description><StartTime><Timestamp dt:dt=""int"">0</Timestamp><DateUtc dt:dt=""string"">2022-09-29T15:11:29Z</DateUtc></StartTime><FrequencyChanges><FrequencyChange><Frequency dt:dt=""r8"">10000000</Frequency><Timestamp dt:dt=""r8"">7863571339490</Timestamp><Current dt:dt=""r8"">0</Current><DateUtc dt:dt=""string"">2022-09-29T15:11:29Z</DateUtc></FrequencyChange></FrequencyChanges></Clock>\n",Demo_Q_OAs-212-2,75.007,1.0.0.63,1,-511282793,1,Full,3.0.3.80,3.0.3.80,9/29/2022,9/29/2022 15:11,11:11:29,3.0.3.82,Keyboard,1,Keyboard,66{ENTER},2690,Keyboard,03{/}30{/}1956{ENTER},19804,Bachelors,Button,18,Button,Yes,Button,Caucasian ,Button,Female,Button,Right hand,Button,Phase1,Proc1,Superblock,1,1,1,Keyboard,Keyboard,very good ,Button,very good,Button,poor,Button,,Button
Demo_Q_OAs,213,Older,3,"<?xml version=""1.0""?>\n<Clock xmlns:dt=""urn:schemas-microsoft-com:datatypes""><Description dt:dt=""string"">E-Prime Primary Realtime Clock</Description><StartTime><Timestamp dt:dt=""int"">0</Timestamp><DateUtc dt:dt=""string"">2023-02-08T16:08:45Z</DateUtc></StartTime><FrequencyChanges><FrequencyChange><Frequency dt:dt=""r8"">10000000</Frequency><Timestamp dt:dt=""r8"">18231338913160</Timestamp><Current dt:dt=""r8"">0</Current><DateUtc dt:dt=""string"">2023-02-08T16:08:45Z</DateUtc></FrequencyChange></FrequencyChanges></Clock>\n",Demo_Q_OAs-213-3,75.027,1.0.0.63,1,-793222492,1,Full,3.0.3.80,3.0.3.80,2/8/2023,2/8/2023,11:08:45,3.0.3.82,Keyboard,1,Keyboard,66{ENTER},3592,Keyboard,01{/}11{/}1956{ENTER},7727,Doctorate/PhD,Button,19,Button,Yes,Button,Caucasian ,Button,Female,Button,Right hand,Button,Phase1,Proc1,Superblock,1,1,1,Keyboard,Keyboard,good,Button,good,Button,good,Button,,Button
Demo_Q_OAs,214,Older,4,"<?xml version=""1.0""?>\n<Clock xmlns:dt=""urn:schemas-microsoft-com:datatypes""><Description dt:dt=""string"">E-Prime Primary Realtime Clock</Description><StartTime><Timestamp dt:dt=""int"">0</Timestamp><DateUtc dt:dt=""string"">2022-10-03T17:06:55Z</DateUtc></StartTime><FrequencyChanges><FrequencyChange><Frequency dt:dt=""r8"">10000000</Frequency><Timestamp dt:dt=""r8"">4333825663897</Timestamp><Current dt:dt=""r8"">0</Current><DateUtc dt:dt=""string"">2022-10-03T17:06:55Z</DateUtc></FrequencyChange></FrequencyChanges></Clock>\n",Demo_Q_OAs-214-4,75.029,1.0.0.63,1,206264623,1,Full,3.0.3.80,3.0.3.80,10/3/2022,10/3/2022,13:06:55,3.0.3.82,Keyboard,1,Keyboard,73{ENTER},3481,Keyboard,01{LEFTARROW}{LEFTARROW}{LEFTARROW}{/}20{/}1949{ENTER},30693,Diploma/GED,Button,13,Button,Yes,Button,Caucasian ,Button,Female,Button,Right hand,Button,Phase1,Proc1,Superblock,1,1,1,Keyboard,Keyboard,good,Button,very good,Button,good,Button,,Button
Demo_Q_OAs,215,Older,5,"<?xml version=""1.0""?>\n<Clock xmlns:dt=""urn:schemas-microsoft-com:datatypes""><Description dt:dt=""string"">E-Prime Primary Realtime Clock</Description><StartTime><Timestamp dt:dt=""int"">0</Timestamp><DateUtc dt:dt=""string"">2022-10-04T14:56:48Z</DateUtc></StartTime><FrequencyChanges><FrequencyChange><Frequency dt:dt=""r8"">10000000</Frequency><Timestamp dt:dt=""r8"">716928923074</Timestamp><Current dt:dt=""r8"">0</Current><DateUtc dt:dt=""string"">2022-10-04T14:56:48Z</DateUtc></FrequencyChange></FrequencyChanges></Clock>\n",Demo_Q_OAs-215-5,75.011,1.0.0.63,1,-327632775,1,Full,3.0.3.80,3.0.3.80,10/4/2022,10/4/2022,10:56:49,3.0.3.82,Keyboard,1,Keyboard,71{ENTER},3288,Keyboard,11{/}08{/}1950{ENTER},23749,Bachelors,Button,16,Button,Yes,Button,Caucasian ,Button,Female,Button,Left hand ,Button,Phase1,Proc1,Superblock,1,1,1,Keyboard,Keyboard,good,Button,very good,Button,good,Button,,Button
Demo_Q_OAs,216,Older,1,"<?xml version=""1.0""?>\n<Clock xmlns:dt=""urn:schemas-microsoft-com:datatypes""><Description dt:dt=""string"">E-Prime Primary Realtime Clock</Description><StartTime><Timestamp dt:dt=""int"">0</Timestamp><DateUtc dt:dt=""string"">2022-10-05T15:15:45Z</DateUtc></StartTime><FrequencyChanges><FrequencyChange><Frequency dt:dt=""r8"">10000000</Frequency><Timestamp dt:dt=""r8"">1592295136795</Timestamp><Current dt:dt=""r8"">0</Current><DateUtc dt:dt=""string"">2022-10-05T15:15:45Z</DateUtc></FrequencyChange></FrequencyChanges></Clock>\n",Demo_Q_OAs-216-1,75.01,1.0.0.63,1,-1135183483,1,Full,3.0.3.80,3.0.3.80,10/5/2022,10/5/2022,11:15:45,3.0.3.82,Keyboard,1,Keyboard,75{ENTER},5543,Keyboard,03{/}06{/}1947{ENTER},27047,Associates,Button,13,Button,Yes,Button,Caucasian ,Button,Female,Button,Right hand,Button,Phase1,Proc1,Superblock,1,1,1,Keyboard,Keyboard,good,Button,good,Button,good,Button,,Button
Demo_Q_OAs,217,Older,2,"<?xml version=""1.0""?>\n<Clock xmlns:dt=""urn:schemas-microsoft-com:datatypes""><Description dt:dt=""string"">E-Prime Primary Realtime Clock</Description><StartTime><Timestamp dt:dt=""int"">0</Timestamp><DateUtc dt:dt=""string"">2022-10-05T15:18:25Z</DateUtc></StartTime><FrequencyChanges><FrequencyChange><Frequency dt:dt=""r8"">10000000</Frequency><Timestamp dt:dt=""r8"">31106628264371</Timestamp><Current dt:dt=""r8"">0</Current><DateUtc dt:dt=""string"">2022-10-05T15:18:25Z</DateUtc></FrequencyChange></FrequencyChanges></Clock>\n",Demo_Q_OAs-217-2,75.014,1.0.0.63,1,-1817211678,1,Full,3.0.3.80,3.0.3.80,10/5/2022,10/5/2022 15:18,11:18:25,3.0.3.82,Keyboard,1,Keyboard,75{ENTER},4285,Keyboard,04{/}17{/}1947{ENTER},26005,Doctorate/PhD,Button,18,Button,Yes,Button,Caucasian ,Button,Female,Button,Right hand,Button,Phase1,Proc1,Superblock,1,1,1,Keyboard,Keyboard,good,Button,good,Button,good,Button,,Button
Demo_Q_OAs,218,Older,3,"<?xml version=""1.0""?>\n<Clock xmlns:dt=""urn:schemas-microsoft-com:datatypes""><Description dt:dt=""string"">E-Prime Primary Realtime Clock</Description><StartTime><Timestamp dt:dt=""int"">0</Timestamp><DateUtc dt:dt=""string"">2022-10-13T15:33:54Z</DateUtc></StartTime><FrequencyChanges><FrequencyChange><Frequency dt:dt=""r8"">10000000</Frequency><Timestamp dt:dt=""r8"">38027877861232</Timestamp><Current dt:dt=""r8"">0</Current><DateUtc dt:dt=""string"">2022-10-13T15:33:54Z</DateUtc></FrequencyChange></FrequencyChanges></Clock>\n",Demo_Q_OAs-218-3,75.024,1.0.0.63,1,240131711,75,Full,3.0.3.80,3.0.3.80,10/13/2022,10/13/2022 15:33,11:33:54,3.0.3.82,Keyboard,1,Keyboard,75{ENTER},4382,Keyboard,03061947{ENTER},11386,Associates,Button,14,Button,Yes,Button,African American,Button,Male,Button,Right hand,Button,Phase1,Proc1,Superblock,1,1,1,Keyboard,Keyboard,good,Button,good,Button,good,Button,,Button
Demo_Q_OAs,219,Older,4,"<?xml version=""1.0""?>\n<Clock xmlns:dt=""urn:schemas-microsoft-com:datatypes""><Description dt:dt=""string"">E-Prime Primary Realtime Clock</Description><StartTime><Timestamp dt:dt=""int"">0</Timestamp><DateUtc dt:dt=""string"">2022-10-17T15:18:50Z</DateUtc></StartTime><FrequencyChanges><FrequencyChange><Frequency dt:dt=""r8"">10000000</Frequency><Timestamp dt:dt=""r8"">11962124764423</Timestamp><Current dt:dt=""r8"">0</Current><DateUtc dt:dt=""string"">2022-10-17T15:18:50Z</DateUtc></FrequencyChange></FrequencyChanges></Clock>\n",Demo_Q_OAs-219-4,75.009,1.0.0.63,1,643477855,1,Full,3.0.3.80,3.0.3.80,10/17/2022,10/17/2022 15:18,11:18:51,3.0.3.82,Keyboard,1,Keyboard,66{ENTER},4565,Keyboard,09{/}27{/}1956{ENTER},12423,Diploma/GED,Button,12,Button,Yes,Button,American Indian or Native American,Button,Female,Button,Right hand,Button,Phase1,Proc1,Superblock,1,1,1,Keyboard,Keyboard,very good ,Button,very good,Button,very good ,Button,,Button
Demo_Q_OAs,220,Older,5,"<?xml version=""1.0""?>\n<Clock xmlns:dt=""urn:schemas-microsoft-com:datatypes""><Description dt:dt=""string"">E-Prime Primary Realtime Clock</Description><StartTime><Timestamp dt:dt=""int"">0</Timestamp><DateUtc dt:dt=""string"">2022-10-18T14:59:40Z</DateUtc></StartTime><FrequencyChanges><FrequencyChange><Frequency dt:dt=""r8"">10000000</Frequency><Timestamp dt:dt=""r8"">921062762029</Timestamp><Current dt:dt=""r8"">0</Current><DateUtc dt:dt=""string"">2022-10-18T14:59:40Z</DateUtc></FrequencyChange></FrequencyChanges></Clock>\n",Demo_Q_OAs-220-5,75.018,1.0.0.63,1,1942345977,1,Full,3.0.3.80,3.0.3.80,10/18/2022,10/18/2022 14:59,10:59:40,3.0.3.82,Keyboard,1,Keyboard,70{ENTER},3047,Keyboard,06021952{ENTER},8646,Masters,Button,18,Button,Yes,Button,Caucasian ,Button,Female,Button,Right hand,Button,Phase1,Proc1,Superblock,1,1,1,Keyboard,Keyboard,very good ,Button,very good,Button,good,Button,,Button
Demo_Q_OAs,221,Older,1,"<?xml version=""1.0""?>\n<Clock xmlns:dt=""urn:schemas-microsoft-com:datatypes""><Description dt:dt=""string"">E-Prime Primary Realtime Clock</Description><StartTime><Timestamp dt:dt=""int"">0</Timestamp><DateUtc dt:dt=""string"">2022-10-18T17:15:03Z</DateUtc></StartTime><FrequencyChanges><FrequencyChange><Frequency dt:dt=""r8"">10000000</Frequency><Timestamp dt:dt=""r8"">66452814933</Timestamp><Current dt:dt=""r8"">0</Current><DateUtc dt:dt=""string"">2022-10-18T17:15:03Z</DateUtc></FrequencyChange></FrequencyChanges></Clock>\n",Demo_Q_OAs-221-1,75.005,1.0.0.63,1,2030849729,1,Full,3.0.3.80,3.0.3.80,10/18/2022,10/18/2022 17:15,13:15:03,3.0.3.82,Keyboard,1,Keyboard,73{ENTER},4349,Keyboard,09{/}12{/}1949{ENTER},43119,Masters,Button,18,Button,Yes,Button,Caucasian ,Button,Female,Button,Left hand ,Button,Phase1,Proc1,Superblock,1,1,1,Keyboard,Keyboard,very good ,Button,very good,Button,very good ,Button,,Button
Demo_Q_OAs,222,Older,2,"<?xml version=""1.0""?>\n<Clock xmlns:dt=""urn:schemas-microsoft-com:datatypes""><Description dt:dt=""string"">E-Prime Primary Realtime Clock</Description><StartTime><Timestamp dt:dt=""int"">0</Timestamp><DateUtc dt:dt=""string"">2022-10-18T17:17:32Z</DateUtc></StartTime><FrequencyChanges><FrequencyChange><Frequency dt:dt=""r8"">10000000</Frequency><Timestamp dt:dt=""r8"">90929205759</Timestamp><Current dt:dt=""r8"">0</Current><DateUtc dt:dt=""string"">2022-10-18T17:17:32Z</DateUtc></FrequencyChange></FrequencyChanges></Clock>\n",Demo_Q_OAs-222-2,75.009,1.0.0.63,1,737610367,1,Full,3.0.3.80,3.0.3.80,10/18/2022,10/18/2022 17:17,13:17:33,3.0.3.82,Keyboard,1,Keyboard,89{ENTER},6079,Keyboard,07171933{ENTER},42574,Bachelors,Button,16,Button,Yes,Button,Caucasian ,Button,Male,Button,Right hand,Button,Phase1,Proc1,Superblock,1,1,1,Keyboard,Keyboard,good,Button,good,Button,poor,Button,,Button
Demo_Q_OAs,223,Older,3,"<?xml version=""1.0""?>\n<Clock xmlns:dt=""urn:schemas-microsoft-com:datatypes""><Description dt:dt=""string"">E-Prime Primary Realtime Clock</Description><StartTime><Timestamp dt:dt=""int"">0</Timestamp><DateUtc dt:dt=""string"">2022-10-20T15:11:52Z</DateUtc></StartTime><FrequencyChanges><FrequencyChange><Frequency dt:dt=""r8"">10000000</Frequency><Timestamp dt:dt=""r8"">1720540057737</Timestamp><Current dt:dt=""r8"">0</Current><DateUtc dt:dt=""string"">2022-10-20T15:11:52Z</DateUtc></FrequencyChange></FrequencyChanges></Clock>\n",Demo_Q_OAs-223-3,75.009,1.0.0.63,1,-1739136313,1,Full,3.0.3.80,3.0.3.80,10/20/2022,10/20/2022 15:11,11:11:52,3.0.3.82,Keyboard,1,Keyboard,70{ENTER},4406,Keyboard,04{/}04{/}1952{ENTER},18521,Masters,Button,19,Button,Yes,Button,Caucasian ,Button,Female,Button,Left hand ,Button,Phase1,Proc1,Superblock,1,1,1,Keyboard,Keyboard,fair,Button,very good,Button,very good ,Button,,Button
Demo_Q_OAs,224,Older,4,"<?xml version=""1.0""?>\n<Clock xmlns:dt=""urn:schemas-microsoft-com:datatypes""><Description dt:dt=""string"">E-Prime Primary Realtime Clock</Description><StartTime><Timestamp dt:dt=""int"">0</Timestamp><DateUtc dt:dt=""string"">2022-10-24T15:00:51Z</DateUtc></StartTime><FrequencyChanges><FrequencyChange><Frequency dt:dt=""r8"">10000000</Frequency><Timestamp dt:dt=""r8"">5169919614416</Timestamp><Current dt:dt=""r8"">0</Current><DateUtc dt:dt=""string"">2022-10-24T15:00:51Z</DateUtc></FrequencyChange></FrequencyChanges></Clock>\n",Demo_Q_OAs-224-4,75.009,1.0.0.63,1,-1218381746,1,Full,3.0.3.80,3.0.3.80,10/24/2022,10/24/2022 15:00,11:00:51,3.0.3.82,Keyboard,1,Keyboard,65{ENTER},3061,Keyboard,01091951{ENTER},10238,Diploma/GED,Button,14,Button,Yes,Button,African American,Button,Female,Button,Right hand,Button,Phase1,Proc1,Superblock,1,1,1,Keyboard,Keyboard,good,Button,very good,Button,very good ,Button,,Button
Demo_Q_OAs,225,Older,5,"<?xml version=""1.0""?>\n<Clock xmlns:dt=""urn:schemas-microsoft-com:datatypes""><Description dt:dt=""string"">E-Prime Primary Realtime Clock</Description><StartTime><Timestamp dt:dt=""int"">0</Timestamp><DateUtc dt:dt=""string"">2022-10-25T15:07:21Z</DateUtc></StartTime><FrequencyChanges><FrequencyChange><Frequency dt:dt=""r8"">10000000</Frequency><Timestamp dt:dt=""r8"">682169145269</Timestamp><Current dt:dt=""r8"">0</Current><DateUtc dt:dt=""string"">2022-10-25T15:07:21Z</DateUtc></FrequencyChange></FrequencyChanges></Clock>\n",Demo_Q_OAs-225-5,75.013,1.0.0.63,1,-728089308,1,Full,3.0.3.80,3.0.3.80,10/25/2022,10/25/2022 15:07,11:07:21,3.0.3.82,Keyboard,1,Keyboard,65{ENTER},3628,Keyboard,07211957{ENTER},12690,Bachelors,Button,16,Button,Yes,Button,Caucasian ,Button,Female,Button,Left hand ,Button,Phase1,Proc1,Superblock,1,1,1,Keyboard,Keyboard,good,Button,good,Button,good,Button,,Button
Demo_Q_OAs,226,Older,1,"<?xml version=""1.0""?>\n<Clock xmlns:dt=""urn:schemas-microsoft-com:datatypes""><Description dt:dt=""string"">E-Prime Primary Realtime Clock</Description><StartTime><Timestamp dt:dt=""int"">0</Timestamp><DateUtc dt:dt=""string"">2022-10-25T17:06:56Z</DateUtc></StartTime><FrequencyChanges><FrequencyChange><Frequency dt:dt=""r8"">10000000</Frequency><Timestamp dt:dt=""r8"">6109570294847</Timestamp><Current dt:dt=""r8"">0</Current><DateUtc dt:dt=""string"">2022-10-25T17:06:56Z</DateUtc></FrequencyChange></FrequencyChanges></Clock>\n",Demo_Q_OAs-226-1,75.02,1.0.0.63,1,2129374197,1,Full,3.0.3.80,3.0.3.80,10/25/2022,10/25/2022 17:06,13:06:56,3.0.3.82,Keyboard,1,Keyboard,71{SPACE}yrs{.}{ENTER},11462,Keyboard,11{BACKSLASH}30{BACKSLASH}1951{ENTER},23794,Diploma/GED,Button,12,Button,Yes,Button,African American,Button,Male,Button,Right hand,Button,Phase1,Proc1,Superblock,1,1,1,Keyboard,Keyboard,fair,Button,good,Button,good,Button,,Button
Demo_Q_OAs,227,Older,2,"<?xml version=""1.0""?>\n<Clock xmlns:dt=""urn:schemas-microsoft-com:datatypes""><Description dt:dt=""string"">E-Prime Primary Realtime Clock</Description><StartTime><Timestamp dt:dt=""int"">0</Timestamp><DateUtc dt:dt=""string"">2022-10-31T14:58:10Z</DateUtc></StartTime><FrequencyChanges><FrequencyChange><Frequency dt:dt=""r8"">10000000</Frequency><Timestamp dt:dt=""r8"">11216362921132</Timestamp><Current dt:dt=""r8"">0</Current><DateUtc dt:dt=""string"">2022-10-31T14:58:10Z</DateUtc></FrequencyChange></FrequencyChanges></Clock>\n",Demo_Q_OAs-227-2,75.01,1.0.0.63,1,-2089110596,1,Full,3.0.3.80,3.0.3.80,10/31/2022,10/31/2022 14:58,10:58:10,3.0.3.82,Keyboard,1,Keyboard,67{ENTER},3426,Keyboard,12201954{ENTER},8383,Bachelors,Button,16,Button,Yes,Button,Caucasian ,Button,Female,Button,Left hand ,Button,Phase1,Proc1,Superblock,1,1,1,Keyboard,Keyboard,good,Button,good,Button,good,Button,,Button
Demo_Q_OAs,228,Older,3,"<?xml version=""1.0""?>\n<Clock xmlns:dt=""urn:schemas-microsoft-com:datatypes""><Description dt:dt=""string"">E-Prime Primary Realtime Clock</Description><StartTime><Timestamp dt:dt=""int"">0</Timestamp><DateUtc dt:dt=""string"">2022-11-01T14:54:53Z</DateUtc></StartTime><FrequencyChanges><FrequencyChange><Frequency dt:dt=""r8"">10000000</Frequency><Timestamp dt:dt=""r8"">13014239129206</Timestamp><Current dt:dt=""r8"">0</Current><DateUtc dt:dt=""string"">2022-11-01T14:54:53Z</DateUtc></FrequencyChange></FrequencyChanges></Clock>\n",Demo_Q_OAs-228-3,75.026,1.0.0.63,1,490814911,1,Full,3.0.3.80,3.0.3.80,11/1/2022,11/1/2022,10:54:53,3.0.3.82,Keyboard,1,Keyboard,66{ENTER},3242,Keyboard,11{/}12{/}1954{ENTER},15952,Bachelors,Button,16,Button,Yes,Button,Caucasian ,Button,Male,Button,Right hand,Button,Phase1,Proc1,Superblock,1,1,1,Keyboard,Keyboard,fair,Button,fair,Button,good,Button,Depression,Button
Demo_Q_OAs,229,Older,4,"<?xml version=""1.0""?>\n<Clock xmlns:dt=""urn:schemas-microsoft-com:datatypes""><Description dt:dt=""string"">E-Prime Primary Realtime Clock</Description><StartTime><Timestamp dt:dt=""int"">0</Timestamp><DateUtc dt:dt=""string"">2022-11-01T16:44:49Z</DateUtc></StartTime><FrequencyChanges><FrequencyChange><Frequency dt:dt=""r8"">10000000</Frequency><Timestamp dt:dt=""r8"">12144289672382</Timestamp><Current dt:dt=""r8"">0</Current><DateUtc dt:dt=""string"">2022-11-01T16:44:49Z</DateUtc></FrequencyChange></FrequencyChanges></Clock>\n",Demo_Q_OAs-229-4,75.005,1.0.0.63,1,-1875155749,1,Full,3.0.3.80,3.0.3.80,11/1/2022,11/1/2022,12:44:50,3.0.3.82,Keyboard,1,Keyboard,75{ENTER},2393,Keyboard,05041947{ENTER},8968,Bachelors,Button,16,Button,Yes,Button,Caucasian ,Button,Female,Button,Right hand,Button,Phase1,Proc1,Superblock,1,1,1,Keyboard,Keyboard,very good ,Button,very good,Button,good,Button,,Button
Demo_Q_OAs,230,Older,5,"<?xml version=""1.0""?>\n<Clock xmlns:dt=""urn:schemas-microsoft-com:datatypes""><Description dt:dt=""string"">E-Prime Primary Realtime Clock</Description><StartTime><Timestamp dt:dt=""int"">0</Timestamp><DateUtc dt:dt=""string"">2022-11-03T14:53:41Z</DateUtc></StartTime><FrequencyChanges><FrequencyChange><Frequency dt:dt=""r8"">10000000</Frequency><Timestamp dt:dt=""r8"">56147647778836</Timestamp><Current dt:dt=""r8"">0</Current><DateUtc dt:dt=""string"">2022-11-03T14:53:41Z</DateUtc></FrequencyChange></FrequencyChanges></Clock>\n",Demo_Q_OAs-230-5,75.03,1.0.0.63,1,-457134216,1,Full,3.0.3.80,3.0.3.80,11/3/2022,11/3/2022,10:53:42,3.0.3.82,Keyboard,1,Keyboard,67{ENTER},4360,Keyboard,05{/}08{NUMLOCK}{LEFTARROW}{LEFTARROW}{LEFTARROW}{LEFTARROW}{LEFTARROW}{LEFTARROW}{/}1955{ENTER},49392,Doctorate/PhD,Button,19,Button,No,Button,Caucasian ,Button,Male,Button,Right hand,Button,Phase1,Proc1,Superblock,1,1,1,Keyboard,Keyboard,good,Button,very good,Button,fair,Button,,Button
Demo_Q_OAs,231,Older,1,"<?xml version=""1.0""?>\n<Clock xmlns:dt=""urn:schemas-microsoft-com:datatypes""><Description dt:dt=""string"">E-Prime Primary Realtime Clock</Description><StartTime><Timestamp dt:dt=""int"">0</Timestamp><DateUtc dt:dt=""string"">2022-11-03T17:18:34Z</DateUtc></StartTime><FrequencyChanges><FrequencyChange><Frequency dt:dt=""r8"">10000000</Frequency><Timestamp dt:dt=""r8"">117248180478</Timestamp><Current dt:dt=""r8"">0</Current><DateUtc dt:dt=""string"">2022-11-03T17:18:34Z</DateUtc></FrequencyChange></FrequencyChanges></Clock>\n",Demo_Q_OAs-231-1,75.006,1.0.0.63,1,1286573150,1,Full,3.0.3.80,3.0.3.80,11/3/2022,11/3/2022,13:18:34,3.0.3.82,Keyboard,1,Keyboard,74{ENTER},2451,Keyboard,04161948{ENTER},8032,Masters,Button,18,Button,Yes,Button,African American,Button,Male,Button,Right hand,Button,Phase1,Proc1,Superblock,1,1,1,Keyboard,Keyboard,good,Button,very good,Button,good,Button,,Button
Demo_Q_OAs,232,Older,2,"<?xml version=""1.0""?>\n<Clock xmlns:dt=""urn:schemas-microsoft-com:datatypes""><Description dt:dt=""string"">E-Prime Primary Realtime Clock</Description><StartTime><Timestamp dt:dt=""int"">0</Timestamp><DateUtc dt:dt=""string"">2022-11-07T15:55:54Z</DateUtc></StartTime><FrequencyChanges><FrequencyChange><Frequency dt:dt=""r8"">10000000</Frequency><Timestamp dt:dt=""r8"">20532497784</Timestamp><Current dt:dt=""r8"">0</Current><DateUtc dt:dt=""string"">2022-11-07T15:55:54Z</DateUtc></FrequencyChange></FrequencyChanges></Clock>\n",Demo_Q_OAs-232-2,75.005,1.0.0.63,1,-939728135,1,Full,3.0.3.80,3.0.3.80,11/7/2022,11/7/2022,10:55:54,3.0.3.82,Keyboard,1,Keyboard,75{ENTER},3033,Keyboard,02{/}21{/}1947{ENTER},11874,Bachelors,Button,16,Button,Yes,Button,Caucasian ,Button,Female,Button,Right hand,Button,Phase1,Proc1,Superblock,1,1,1,Keyboard,Keyboard,very good ,Button,very good,Button,very good ,Button,,Button
Demo_Q_OAs,233,Older,3,"<?xml version=""1.0""?>\n<Clock xmlns:dt=""urn:schemas-microsoft-com:datatypes""><Description dt:dt=""string"">E-Prime Primary Realtime Clock</Description><StartTime><Timestamp dt:dt=""int"">0</Timestamp><DateUtc dt:dt=""string"">2022-11-08T15:35:06Z</DateUtc></StartTime><FrequencyChanges><FrequencyChange><Frequency dt:dt=""r8"">10000000</Frequency><Timestamp dt:dt=""r8"">662527574109</Timestamp><Current dt:dt=""r8"">0</Current><DateUtc dt:dt=""string"">2022-11-08T15:35:06Z</DateUtc></FrequencyChange></FrequencyChanges></Clock>\n",Demo_Q_OAs-233-3,75.025,1.0.0.63,1,1105631074,1,Full,3.0.3.80,3.0.3.80,11/8/2022,11/8/2022,10:35:07,3.0.3.82,Keyboard,1,Keyboard,70{ENTER},5315,Keyboard,01121952{ENTER},10830,Masters,Button,19,Button,Yes,Button,Caucasian ,Button,Female,Button,Right hand,Button,Phase1,Proc1,Superblock,1,1,1,Keyboard,Keyboard,fair,Button,fair,Button,very good ,Button,Depression,Button
Demo_Q_OAs,234,Older,4,"<?xml version=""1.0""?>\n<Clock xmlns:dt=""urn:schemas-microsoft-com:datatypes""><Description dt:dt=""string"">E-Prime Primary Realtime Clock</Description><StartTime><Timestamp dt:dt=""int"">0</Timestamp><DateUtc dt:dt=""string"">2022-11-08T19:20:51Z</DateUtc></StartTime><FrequencyChanges><FrequencyChange><Frequency dt:dt=""r8"">10000000</Frequency><Timestamp dt:dt=""r8"">44138289859</Timestamp><Current dt:dt=""r8"">0</Current><DateUtc dt:dt=""string"">2022-11-08T19:20:51Z</DateUtc></FrequencyChange></FrequencyChanges></Clock>\n",Demo_Q_OAs-234-4,75.005,1.0.0.63,1,1191216072,1,Full,3.0.3.80,3.0.3.80,11/8/2022,11/8/2022,14:20:51,3.0.3.82,Keyboard,1,Keyboard,80{ENTER},4281,Keyboard,05{/}29{/}1942{ENTER},24962,Bachelors,Button,16,Button,Yes,Button,Caucasian |African American|American Indian or Native American,Button,Female,Button,Right hand,Button,Phase1,Proc1,Superblock,1,1,1,Keyboard,Keyboard,good,Button,fair,Button,very good ,Button,,Button
Demo_Q_OAs,235,Older,5,"<?xml version=""1.0""?>\n<Clock xmlns:dt=""urn:schemas-microsoft-com:datatypes""><Description dt:dt=""string"">E-Prime Primary Realtime Clock</Description><StartTime><Timestamp dt:dt=""int"">0</Timestamp><DateUtc dt:dt=""string"">2022-11-09T17:56:08Z</DateUtc></StartTime><FrequencyChanges><FrequencyChange><Frequency dt:dt=""r8"">10000000</Frequency><Timestamp dt:dt=""r8"">20035055261840</Timestamp><Current dt:dt=""r8"">0</Current><DateUtc dt:dt=""string"">2022-11-09T17:56:08Z</DateUtc></FrequencyChange></FrequencyChanges></Clock>\n",Demo_Q_OAs-235-5,75.017,1.0.0.63,1,-964546104,1,Full,3.0.3.80,3.0.3.80,11/9/2022,11/9/2022,12:56:09,3.0.3.82,Keyboard,1,Keyboard,71{ENTER},22505,Keyboard,02{/}26{/}1951{ENTER},18338,Bachelors,Button,18,Button,Yes,Button,Other,Button,Female,Button,Right hand,Button,Phase1,Proc1,Superblock,1,1,1,Keyboard,Keyboard,fair,Button,good,Button,good,Button,,Button
Demo_Q_OAs,236,Older,1,"<?xml version=""1.0""?>\n<Clock xmlns:dt=""urn:schemas-microsoft-com:datatypes""><Description dt:dt=""string"">E-Prime Primary Realtime Clock</Description><StartTime><Timestamp dt:dt=""int"">0</Timestamp><DateUtc dt:dt=""string"">2022-11-10T16:06:05Z</DateUtc></StartTime><FrequencyChanges><FrequencyChange><Frequency dt:dt=""r8"">10000000</Frequency><Timestamp dt:dt=""r8"">2618641603774</Timestamp><Current dt:dt=""r8"">0</Current><DateUtc dt:dt=""string"">2022-11-10T16:06:05Z</DateUtc></FrequencyChange></FrequencyChanges></Clock>\n",Demo_Q_OAs-236-1,75.006,1.0.0.63,1,-1285404136,1,Full,3.0.3.80,3.0.3.80,11/10/2022,11/10/2022 16:06,11:06:05,3.0.3.82,Keyboard,1,Keyboard,74{ENTER},4647,Keyboard,12301947{ENTER},26048,Bachelors,Button,16,Button,Yes,Button,Caucasian ,Button,Male,Button,Right hand,Button,Phase1,Proc1,Superblock,1,1,1,Keyboard,Keyboard,good,Button,very good,Button,good,Button,,Button
Demo_Q_OAs,237,Older,2,"<?xml version=""1.0""?>\n<Clock xmlns:dt=""urn:schemas-microsoft-com:datatypes""><Description dt:dt=""string"">E-Prime Primary Realtime Clock</Description><StartTime><Timestamp dt:dt=""int"">0</Timestamp><DateUtc dt:dt=""string"">2022-11-14T16:01:25Z</DateUtc></StartTime><FrequencyChanges><FrequencyChange><Frequency dt:dt=""r8"">10000000</Frequency><Timestamp dt:dt=""r8"">6071841633220</Timestamp><Current dt:dt=""r8"">0</Current><DateUtc dt:dt=""string"">2022-11-14T16:01:25Z</DateUtc></FrequencyChange></FrequencyChanges></Clock>\n",Demo_Q_OAs-237-2,75.023,1.0.0.63,1,-1239061819,1,Full,3.0.3.80,3.0.3.80,11/14/2022,11/14/2022 16:01,11:01:25,3.0.3.82,Keyboard,1,Keyboard,75{ENTER},2902,Keyboard,05021947{ENTER},9013,Bachelors,Button,16,Button,Yes,Button,Caucasian ,Button,Female,Button,Right hand,Button,Phase1,Proc1,Superblock,1,1,1,Keyboard,Keyboard,good,Button,good,Button,good,Button,,Button
Demo_Q_OAs,238,Older,3,"<?xml version=""1.0""?>\n<Clock xmlns:dt=""urn:schemas-microsoft-com:datatypes""><Description dt:dt=""string"">E-Prime Primary Realtime Clock</Description><StartTime><Timestamp dt:dt=""int"">0</Timestamp><DateUtc dt:dt=""string"">2022-11-14T18:00:04Z</DateUtc></StartTime><FrequencyChanges><FrequencyChange><Frequency dt:dt=""r8"">10000000</Frequency><Timestamp dt:dt=""r8"">6143027276923</Timestamp><Current dt:dt=""r8"">0</Current><DateUtc dt:dt=""string"">2022-11-14T18:00:04Z</DateUtc></FrequencyChange></FrequencyChanges></Clock>\n",Demo_Q_OAs-238-3,75.018,1.0.0.63,1,1226996455,1,Full,3.0.3.80,3.0.3.80,11/14/2022,11/14/2022 18:00,13:00:04,3.0.3.82,Keyboard,1,Keyboard,65{ENTER},3741,Keyboard,08{/}05{/}1957{ENTER},10518,Masters,Button,19,Button,Yes,Button,Caucasian ,Button,Female,Button,Right hand,Button,Phase1,Proc1,Superblock,1,1,1,Keyboard,Keyboard,very good ,Button,very good,Button,very good ,Button,,Button
