ExperimentName,Subject,AgeGroup,Session,Clock.Information,DataFile.Basename,Display.RefreshRate,ExperimentVersion,Group,RandomSeed,ResearcherID,RuntimeCapabilities,RuntimeVersion,RuntimeVersionExpected,SessionDate,SessionStartDateTimeUtc,SessionTime,StudioVersion,ThankYou.DEVICE,Block,Age.DEVICE,Age.RESP,Age.RT,Birthday.DEVICE,Birthday.RESP,Birthday.RT,EduAttain.Choice1.ValueLabel,EduAttain.DEVICE,EduYears.Choice1.ValueLabel,EduYears.DEVICE,EnglishLanguage.Choice1.ValueLabel,EnglishLanguage.DEVICE,Ethnicity.Choice1.ValueLabel,Ethnicity.DEVICE,Gender.Choice1.ValueLabel,Gender.DEVICE,Handedness.Choice1.ValueLabel,Handedness.DEVICE,Phase,Procedure,Running,Superblock,Superblock.Cycle,Superblock.Sample,Welcome.DEVICE,Eyesight.Choice1.ValueLabel,Eyesight.DEVICE,Health.Choice1.ValueLabel,Health.DEVICE,Hearing.Choice1.ValueLabel,Hearing.DEVICE,Medical.Choice1.ValueLabel,Medical.DEVICE
Demo_Q_YAs,101,Younger,1,"<?xml version=""1.0""?>\n<Clock xmlns:dt=""urn:schemas-microsoft-com:datatypes""><Description dt:dt=""string"">E-Prime Primary Realtime Clock</Description><StartTime><Timestamp dt:dt=""int"">0</Timestamp><DateUtc dt:dt=""string"">2019-10-09T14:18:14Z</DateUtc></StartTime><FrequencyChanges><FrequencyChange><Frequency dt:dt=""r8"">10000000</Frequency><Timestamp dt:dt=""r8"">4309274999282</Timestamp><Current dt:dt=""r8"">0</Current><DateUtc dt:dt=""string"">2019-10-09T14:18:14Z</DateUtc></FrequencyChange></FrequencyChanges></Clock>\n",Demo_Q_YAs-101-1,75.017,1.0.0.66,1,1425364242,1,Full,3.0.3.80,3.0.3.80,9/10/19,9/10/19 14:18,10:18:15,3.0.3.82,Keyboard,1,Keyboard,21{ENTER},2216,Keyboard,02101998{ENTER},7648,Associates,Button,17,Button,Yes,Button,Caucasian ,Button,Female,Button,Right hand,Button,Phase1,Proc1,Superblock,1,1,1,Keyboard,,,,,,,,
Demo_Q_YAs,102,Younger,2,"<?xml version=""1.0""?>\n<Clock xmlns:dt=""urn:schemas-microsoft-com:datatypes""><Description dt:dt=""string"">E-Prime Primary Realtime Clock</Description><StartTime><Timestamp dt:dt=""int"">0</Timestamp><DateUtc dt:dt=""string"">2019-10-16T14:32:09Z</DateUtc></StartTime><FrequencyChanges><FrequencyChange><Frequency dt:dt=""r8"">10000000</Frequency><Timestamp dt:dt=""r8"">4332091128191</Timestamp><Current dt:dt=""r8"">0</Current><DateUtc dt:dt=""string"">2019-10-16T14:32:09Z</DateUtc></FrequencyChange></FrequencyChanges></Clock>\n",Demo_Q_YAs-102-2,75.028,1.0.0.66,1,-1528217238,1,Full,3.0.3.80,3.0.3.80,16/10/2019,16/10/2019 14:32,10:32:09,3.0.3.82,Keyboard,1,Keyboard,18{ENTER},2680,Keyboard,09{/}16{/}2001{ENTER},8794,Diploma/GED,Button,12,Button,Yes,Button,Caucasian ,Button,Female,Button,Right hand,Button,Phase1,Proc1,Superblock,1,1,1,Keyboard,,,,,,,,
Demo_Q_YAs,103,Younger,3,"<?xml version=""1.0""?>\n<Clock xmlns:dt=""urn:schemas-microsoft-com:datatypes""><Description dt:dt=""string"">E-Prime Primary Realtime Clock</Description><StartTime><Timestamp dt:dt=""int"">0</Timestamp><DateUtc dt:dt=""string"">2019-10-18T17:18:42Z</DateUtc></StartTime><FrequencyChanges><FrequencyChange><Frequency dt:dt=""r8"">10000000</Frequency><Timestamp dt:dt=""r8"">6164965176054</Timestamp><Current dt:dt=""r8"">0</Current><DateUtc dt:dt=""string"">2019-10-18T17:18:42Z</DateUtc></FrequencyChange></FrequencyChanges></Clock>\n",Demo_Q_YAs-103-3,75.015,1.0.0.66,1,1689782066,1,Full,3.0.3.80,3.0.3.80,18/10/2019,18/10/2019 17:18,13:18:43,3.0.3.82,Keyboard,1,Keyboard,22{ENTER},1728,Keyboard,05{LEFTARROW}{LEFTARROW}{LEFTARROW}{/}31{/}1997{ENTER},8508,Diploma/GED,Button,15,Button,No,Button,Hispanic or Latino,Button,Male,Button,Right hand,Button,Phase1,Proc1,Superblock,1,1,1,Keyboard,,,,,,,,
Demo_Q_YAs,104,Younger,4,"<?xml version=""1.0""?>\n<Clock xmlns:dt=""urn:schemas-microsoft-com:datatypes""><Description dt:dt=""string"">E-Prime Primary Realtime Clock</Description><StartTime><Timestamp dt:dt=""int"">0</Timestamp><DateUtc dt:dt=""string"">2019-10-24T17:02:48Z</DateUtc></StartTime><FrequencyChanges><FrequencyChange><Frequency dt:dt=""r8"">10000000</Frequency><Timestamp dt:dt=""r8"">5020241408449</Timestamp><Current dt:dt=""r8"">0</Current><DateUtc dt:dt=""string"">2019-10-24T17:02:48Z</DateUtc></FrequencyChange></FrequencyChanges></Clock>\n",Demo_Q_YAs-104-4,75.008,1.0.0.66,1,-572398313,1,Full,3.0.3.80,3.0.3.80,24/10/2019,24/10/2019 17:02,13:02:48,3.0.3.82,Keyboard,1,Keyboard,19{ENTER},3345,Keyboard,01{/}20{/}2000{ENTER},8950,Diploma/GED,Button,12,Button,Yes,Button,African American,Button,Female,Button,Right hand,Button,Phase1,Proc1,Superblock,1,1,1,Keyboard,,,,,,,,
Demo_Q_YAs,105,Younger,5,"<?xml version=""1.0""?>\n<Clock xmlns:dt=""urn:schemas-microsoft-com:datatypes""><Description dt:dt=""string"">E-Prime Primary Realtime Clock</Description><StartTime><Timestamp dt:dt=""int"">0</Timestamp><DateUtc dt:dt=""string"">2019-10-01T17:29:33Z</DateUtc></StartTime><FrequencyChanges><FrequencyChange><Frequency dt:dt=""r8"">10000000</Frequency><Timestamp dt:dt=""r8"">3309947628045</Timestamp><Current dt:dt=""r8"">0</Current><DateUtc dt:dt=""string"">2019-10-01T17:29:33Z</DateUtc></FrequencyChange></FrequencyChanges></Clock>\n",Demo_Q_YAs-5-5,75.026,1.0.0.66,1,-1469579528,1,Full,3.0.3.80,3.0.3.80,1/10/19,1/10/19 17:29,13:29:33,3.0.3.82,Keyboard,1,Keyboard,18{ENTER},2437,Keyboard,10{/}23{/}2000{ENTER},7192,Diploma/GED,Button,12,Button,Yes,Button,Caucasian ,Button,Female,Button,Right hand,Button,Phase1,Proc1,Superblock,1,1,1,Keyboard,,,,,,,,
Demo_Q_YAs,106,Younger,1,"<?xml version=""1.0""?>\n<Clock xmlns:dt=""urn:schemas-microsoft-com:datatypes""><Description dt:dt=""string"">E-Prime Primary Realtime Clock</Description><StartTime><Timestamp dt:dt=""int"">0</Timestamp><DateUtc dt:dt=""string"">2019-10-03T17:00:18Z</DateUtc></StartTime><FrequencyChanges><FrequencyChange><Frequency dt:dt=""r8"">10000000</Frequency><Timestamp dt:dt=""r8"">3490062237335</Timestamp><Current dt:dt=""r8"">0</Current><DateUtc dt:dt=""string"">2019-10-03T17:00:18Z</DateUtc></FrequencyChange></FrequencyChanges></Clock>\n",Demo_Q_YAs-6-1,75.015,1.0.0.66,1,-1743523325,1,Full,3.0.3.80,3.0.3.80,3/10/19,3/10/19 17:00,13:00:18,3.0.3.82,Keyboard,1,Keyboard,18{ENTER},2489,Keyboard,{LEFTARROW}{LEFTARROW}{LEFTARROW}04{/}12{/}2001{ENTER},16151,Diploma/GED,Button,13,Button,Yes,Button,African American,Button,Male,Button,Right hand,Button,Phase1,Proc1,Superblock,1,1,1,Keyboard,,,,,,,,
Demo_Q_YAs,107,Younger,2,"<?xml version=""1.0""?>\n<Clock xmlns:dt=""urn:schemas-microsoft-com:datatypes""><Description dt:dt=""string"">E-Prime Primary Realtime Clock</Description><StartTime><Timestamp dt:dt=""int"">0</Timestamp><DateUtc dt:dt=""string"">2019-10-04T17:28:45Z</DateUtc></StartTime><FrequencyChanges><FrequencyChange><Frequency dt:dt=""r8"">10000000</Frequency><Timestamp dt:dt=""r8"">103592615498</Timestamp><Current dt:dt=""r8"">0</Current><DateUtc dt:dt=""string"">2019-10-04T17:28:45Z</DateUtc></FrequencyChange></FrequencyChanges></Clock>\n",Demo_Q_YAs-7-2,75.005,1.0.0.66,1,516018674,1,Full,3.0.3.80,3.0.3.80,4/10/19,4/10/19 17:28,13:28:45,3.0.3.82,Keyboard,1,Keyboard,18{ENTER},1944,Keyboard,05{/}16{/}2001{ENTER},7447,Diploma/GED,Button,12,Button,Yes,Button,African American,Button,Female,Button,Right hand,Button,Phase1,Proc1,Superblock,1,1,1,Keyboard,,,,,,,,
Demo_Q_YAs,108,Younger,3,"<?xml version=""1.0""?>\n<Clock xmlns:dt=""urn:schemas-microsoft-com:datatypes""><Description dt:dt=""string"">E-Prime Primary Realtime Clock</Description><StartTime><Timestamp dt:dt=""int"">0</Timestamp><DateUtc dt:dt=""string"">2019-10-07T13:15:20Z</DateUtc></StartTime><FrequencyChanges><FrequencyChange><Frequency dt:dt=""r8"">10000000</Frequency><Timestamp dt:dt=""r8"">2514924712123</Timestamp><Current dt:dt=""r8"">0</Current><DateUtc dt:dt=""string"">2019-10-07T13:15:20Z</DateUtc></FrequencyChange></FrequencyChanges></Clock>\n",Demo_Q_YAs-8-3,75.012,1.0.0.66,1,-1923409222,1,Full,3.0.3.80,3.0.3.80,7/10/19,7/10/19 13:15,9:15:20,3.0.3.82,Keyboard,1,Keyboard,18{ENTER},1547,Keyboard,04{/}28{/}2001{ENTER},6398,Diploma/GED,Button,12,Button,Yes,Button,Caucasian ,Button,Female,Button,Right hand,Button,Phase1,Proc1,Superblock,1,1,1,Keyboard,,,,,,,,
Demo_Q_YAs,109,Younger,4,"<?xml version=""1.0""?>\n<Clock xmlns:dt=""urn:schemas-microsoft-com:datatypes""><Description dt:dt=""string"">E-Prime Primary Realtime Clock</Description><StartTime><Timestamp dt:dt=""int"">0</Timestamp><DateUtc dt:dt=""string"">2019-10-07T14:34:11Z</DateUtc></StartTime><FrequencyChanges><FrequencyChange><Frequency dt:dt=""r8"">10000000</Frequency><Timestamp dt:dt=""r8"">2562225244531</Timestamp><Current dt:dt=""r8"">0</Current><DateUtc dt:dt=""string"">2019-10-07T14:34:11Z</DateUtc></FrequencyChange></FrequencyChanges></Clock>\n",Demo_Q_YAs-9-4,75.013,1.0.0.66,1,-1867633684,1,Full,3.0.3.80,3.0.3.80,7/10/19,7/10/19 14:34,10:34:12,3.0.3.82,Keyboard,1,Keyboard,18{ENTER},1935,Keyboard,09282001{ENTER},9053,Diploma/GED,Button,12,Button,Yes,Button,African American,Button,Female,Button,Right hand,Button,Phase1,Proc1,Superblock,1,1,1,Keyboard,,,,,,,,
Demo_Q_YAs,110,Younger,5,"<?xml version=""1.0""?>\n<Clock xmlns:dt=""urn:schemas-microsoft-com:datatypes""><Description dt:dt=""string"">E-Prime Primary Realtime Clock</Description><StartTime><Timestamp dt:dt=""int"">0</Timestamp><DateUtc dt:dt=""string"">2019-10-08T17:03:25Z</DateUtc></StartTime><FrequencyChanges><FrequencyChange><Frequency dt:dt=""r8"">10000000</Frequency><Timestamp dt:dt=""r8"">41228673005</Timestamp><Current dt:dt=""r8"">0</Current><DateUtc dt:dt=""string"">2019-10-08T17:03:25Z</DateUtc></FrequencyChange></FrequencyChanges></Clock>\n",Demo_Q_YAs-10-5,75.014,1.0.0.66,1,-1718096394,1,Full,3.0.3.80,3.0.3.80,8/10/19,8/10/19 17:03,13:03:25,3.0.3.82,Keyboard,1,Keyboard,19{ENTER},2623,Keyboard,10{/}12{/}99{ENTER},9334,Diploma/GED,Button,12,Button,Yes,Button,Caucasian |African American|American Indian or Native American|Hispanic or Latino,Button,Male,Button,Right hand,Button,Phase1,Proc1,Superblock,1,1,1,Keyboard,,,,,,,,
Demo_Q_YAs,111,Younger,1,"<?xml version=""1.0""?>\n<Clock xmlns:dt=""urn:schemas-microsoft-com:datatypes""><Description dt:dt=""string"">E-Prime Primary Realtime Clock</Description><StartTime><Timestamp dt:dt=""int"">0</Timestamp><DateUtc dt:dt=""string"">2019-10-25T15:24:35Z</DateUtc></StartTime><FrequencyChanges><FrequencyChange><Frequency dt:dt=""r8"">10000000</Frequency><Timestamp dt:dt=""r8"">5825304816224</Timestamp><Current dt:dt=""r8"">0</Current><DateUtc dt:dt=""string"">2019-10-25T15:24:35Z</DateUtc></FrequencyChange></FrequencyChanges></Clock>\n",Demo_Q_YAs-111-1,75.023,1.0.0.66,1,1331861997,1,Full,3.0.3.80,3.0.3.80,25/10/2019,25/10/2019 15:24,11:24:35,3.0.3.82,Keyboard,1,Keyboard,20{ENTER},1535,Keyboard,06291999{ENTER},4923,Associates,Button,14,Button,Yes,Button,African American,Button,Female,Button,Right hand,Button,Phase1,Proc1,Superblock,1,1,1,Keyboard,,,,,,,,
Demo_Q_YAs,112,Younger,2,"<?xml version=""1.0""?>\n<Clock xmlns:dt=""urn:schemas-microsoft-com:datatypes""><Description dt:dt=""string"">E-Prime Primary Realtime Clock</Description><StartTime><Timestamp dt:dt=""int"">0</Timestamp><DateUtc dt:dt=""string"">2019-10-25T16:30:46Z</DateUtc></StartTime><FrequencyChanges><FrequencyChange><Frequency dt:dt=""r8"">10000000</Frequency><Timestamp dt:dt=""r8"">5865014938580</Timestamp><Current dt:dt=""r8"">0</Current><DateUtc dt:dt=""string"">2019-10-25T16:30:46Z</DateUtc></FrequencyChange></FrequencyChanges></Clock>\n",Demo_Q_YAs-112-2,75.01,1.0.0.66,1,-1907766872,1,Full,3.0.3.80,3.0.3.80,25/10/2019,25/10/2019 16:30,12:30:46,3.0.3.82,Keyboard,1,Keyboard,18{ENTER},2666,Keyboard,12{/}18{/}2000{ENTER},9222,Diploma/GED,Button,12,Button,Yes,Button,American Indian or Native American,Button,Female,Button,Right hand,Button,Phase1,Proc1,Superblock,1,1,1,Keyboard,,,,,,,,
Demo_Q_YAs,113,Younger,3,"<?xml version=""1.0""?>\n<Clock xmlns:dt=""urn:schemas-microsoft-com:datatypes""><Description dt:dt=""string"">E-Prime Primary Realtime Clock</Description><StartTime><Timestamp dt:dt=""int"">0</Timestamp><DateUtc dt:dt=""string"">2019-10-31T14:10:25Z</DateUtc></StartTime><FrequencyChanges><FrequencyChange><Frequency dt:dt=""r8"">10000000</Frequency><Timestamp dt:dt=""r8"">10928468466178</Timestamp><Current dt:dt=""r8"">0</Current><DateUtc dt:dt=""string"">2019-10-31T14:10:25Z</DateUtc></FrequencyChange></FrequencyChanges></Clock>\n",Demo_Q_YAs-113-3,75.005,1.0.0.66,1,2074377784,1,Full,3.0.3.80,3.0.3.80,31/10/2019,31/10/2019 14:10,10:10:25,3.0.3.82,Keyboard,1,Keyboard,19{ENTER},2751,Keyboard,03212000{ENTER},10400,Diploma/GED,Button,13,Button,Yes,Button,African American,Button,Male,Button,Right hand,Button,Phase1,Proc1,Superblock,1,1,1,Keyboard,,,,,,,,
Demo_Q_YAs,114,Younger,4,"<?xml version=""1.0""?>\n<Clock xmlns:dt=""urn:schemas-microsoft-com:datatypes""><Description dt:dt=""string"">E-Prime Primary Realtime Clock</Description><StartTime><Timestamp dt:dt=""int"">0</Timestamp><DateUtc dt:dt=""string"">2019-11-05T19:02:34Z</DateUtc></StartTime><FrequencyChanges><FrequencyChange><Frequency dt:dt=""r8"">10000000</Frequency><Timestamp dt:dt=""r8"">15459917989815</Timestamp><Current dt:dt=""r8"">0</Current><DateUtc dt:dt=""string"">2019-11-05T19:02:34Z</DateUtc></FrequencyChange></FrequencyChanges></Clock>\n",Demo_Q_YAs-114-4,75.028,1.0.0.66,1,-1961667013,1,Full,3.0.3.80,3.0.3.80,5/11/19,5/11/19 19:02,14:02:34,3.0.3.82,Keyboard,1,Keyboard,19{ENTER},2298,Keyboard,06{/}29{/}2000{ENTER},7543,Diploma/GED,Button,13,Button,Yes,Button,Caucasian ,Button,Male,Button,Right hand,Button,Phase1,Proc1,Superblock,1,1,1,Keyboard,,,,,,,,
Demo_Q_YAs,115,Younger,5,"<?xml version=""1.0""?>\n<Clock xmlns:dt=""urn:schemas-microsoft-com:datatypes""><Description dt:dt=""string"">E-Prime Primary Realtime Clock</Description><StartTime><Timestamp dt:dt=""int"">0</Timestamp><DateUtc dt:dt=""string"">2019-11-06T17:21:22Z</DateUtc></StartTime><FrequencyChanges><FrequencyChange><Frequency dt:dt=""r8"">10000000</Frequency><Timestamp dt:dt=""r8"">16262985022919</Timestamp><Current dt:dt=""r8"">0</Current><DateUtc dt:dt=""string"">2019-11-06T17:21:22Z</DateUtc></FrequencyChange></FrequencyChanges></Clock>\n",Demo_Q_YAs-115-5,75.009,1.0.0.66,1,-2053486954,1,Full,3.0.3.80,3.0.3.80,6/11/19,6/11/19 17:21,12:21:22,3.0.3.82,Keyboard,1,Keyboard,18{ENTER},2383,Keyboard,10{/}04{/}2001{ENTER},13825,Diploma/GED,Button,12,Button,Yes,Button,African American,Button,Female,Button,Right hand,Button,Phase1,Proc1,Superblock,1,1,1,Keyboard,,,,,,,,
Demo_Q_YAs,116,Younger,1,"<?xml version=""1.0""?>\n<Clock xmlns:dt=""urn:schemas-microsoft-com:datatypes""><Description dt:dt=""string"">E-Prime Primary Realtime Clock</Description><StartTime><Timestamp dt:dt=""int"">0</Timestamp><DateUtc dt:dt=""string"">2019-11-08T15:13:50Z</DateUtc></StartTime><FrequencyChanges><FrequencyChange><Frequency dt:dt=""r8"">10000000</Frequency><Timestamp dt:dt=""r8"">779862872</Timestamp><Current dt:dt=""r8"">0</Current><DateUtc dt:dt=""string"">2019-11-08T15:13:50Z</DateUtc></FrequencyChange></FrequencyChanges></Clock>\n",Demo_Q_YAs-116-1,75.017,1.0.0.66,1,782817638,1,Full,3.0.3.80,3.0.3.80,8/11/19,8/11/19 15:13,10:13:50,3.0.3.82,Keyboard,1,Keyboard,18{ENTER},2625,Keyboard,11{/}14{/}2000{SPACE}{ENTER},14521,Diploma/GED,Button,13,Button,No,Button,Asian or Pacific Islander,Button,Male,Button,Right hand,Button,Phase1,Proc1,Superblock,1,1,1,Keyboard,,,,,,,,
Demo_Q_YAs,117,Younger,2,"<?xml version=""1.0""?>\n<Clock xmlns:dt=""urn:schemas-microsoft-com:datatypes""><Description dt:dt=""string"">E-Prime Primary Realtime Clock</Description><StartTime><Timestamp dt:dt=""int"">0</Timestamp><DateUtc dt:dt=""string"">2019-11-08T16:26:29Z</DateUtc></StartTime><FrequencyChanges><FrequencyChange><Frequency dt:dt=""r8"">10000000</Frequency><Timestamp dt:dt=""r8"">44370333693</Timestamp><Current dt:dt=""r8"">0</Current><DateUtc dt:dt=""string"">2019-11-08T16:26:29Z</DateUtc></FrequencyChange></FrequencyChanges></Clock>\n",Demo_Q_YAs-117-2,75.023,1.0.0.66,1,1423348264,1,Full,3.0.3.80,3.0.3.80,8/11/19,8/11/19 16:26,11:26:29,3.0.3.82,Keyboard,1,Keyboard,18{ENTER},1372,Keyboard,08092001{ENTER},5239,Diploma/GED,Button,12,Button,Yes,Button,African American,Button,Female,Button,Right hand,Button,Phase1,Proc1,Superblock,1,1,1,Keyboard,,,,,,,,
Demo_Q_YAs,118,Younger,3,"<?xml version=""1.0""?>\n<Clock xmlns:dt=""urn:schemas-microsoft-com:datatypes""><Description dt:dt=""string"">E-Prime Primary Realtime Clock</Description><StartTime><Timestamp dt:dt=""int"">0</Timestamp><DateUtc dt:dt=""string"">2019-11-08T18:51:00Z</DateUtc></StartTime><FrequencyChanges><FrequencyChange><Frequency dt:dt=""r8"">10000000</Frequency><Timestamp dt:dt=""r8"">131096602684</Timestamp><Current dt:dt=""r8"">0</Current><DateUtc dt:dt=""string"">2019-11-08T18:51:00Z</DateUtc></FrequencyChange></FrequencyChanges></Clock>\n",Demo_Q_YAs-118-3,75.004,1.0.0.66,1,-2044684414,1,Full,3.0.3.80,3.0.3.80,8/11/19,8/11/19 18:51,13:51:01,3.0.3.82,Keyboard,1,Keyboard,18{ENTER},2329,Keyboard,08092001{ENTER},10235,Diploma/GED,Button,12,Button,Yes,Button,African American,Button,Female,Button,Right hand,Button,Phase1,Proc1,Superblock,1,1,1,Keyboard,,,,,,,,
Demo_Q_YAs,119,Younger,4,"<?xml version=""1.0""?>\n<Clock xmlns:dt=""urn:schemas-microsoft-com:datatypes""><Description dt:dt=""string"">E-Prime Primary Realtime Clock</Description><StartTime><Timestamp dt:dt=""int"">0</Timestamp><DateUtc dt:dt=""string"">2019-11-12T22:03:17Z</DateUtc></StartTime><FrequencyChanges><FrequencyChange><Frequency dt:dt=""r8"">10000000</Frequency><Timestamp dt:dt=""r8"">21611300609818</Timestamp><Current dt:dt=""r8"">0</Current><DateUtc dt:dt=""string"">2019-11-12T22:03:17Z</DateUtc></FrequencyChange></FrequencyChanges></Clock>\n",Demo_Q_YAs-119-4,75.028,1.0.0.66,1,-972136095,1,Full,3.0.3.80,3.0.3.80,12/11/19,,17:03:17,3.0.3.82,Keyboard,1,Keyboard,19{ENTER},3520,Keyboard,10{/}08{/}2000{ENTER},7749,Diploma/GED,Button,12,Button,Yes,Button,Caucasian ,Button,Male,Button,Right hand,Button,Phase1,Proc1,Superblock,1,1,1,Keyboard,,,,,,,,
Demo_Q_YAs,120,Younger,5,"<?xml version=""1.0""?>\n<Clock xmlns:dt=""urn:schemas-microsoft-com:datatypes""><Description dt:dt=""string"">E-Prime Primary Realtime Clock</Description><StartTime><Timestamp dt:dt=""int"">0</Timestamp><DateUtc dt:dt=""string"">2019-11-14T18:13:58Z</DateUtc></StartTime><FrequencyChanges><FrequencyChange><Frequency dt:dt=""r8"">10000000</Frequency><Timestamp dt:dt=""r8"">9310164876</Timestamp><Current dt:dt=""r8"">0</Current><DateUtc dt:dt=""string"">2019-11-14T18:13:58Z</DateUtc></FrequencyChange></FrequencyChanges></Clock>\n",Demo_Q_YAs-120-5,75.019,1.0.0.66,1,722884223,1,Full,3.0.3.80,3.0.3.80,14/11/2019,14/11/2019 18:13,13:13:58,3.0.3.82,Keyboard,1,Keyboard,18{ENTER},4092,Keyboard,11{/}30{/}2000{ENTER},15474,Diploma/GED,Button,12,Button,Yes,Button,Hispanic or Latino,Button,Male,Button,Right hand,Button,Phase1,Proc1,Superblock,1,1,1,Keyboard,,,,,,,,
Demo_Q_YAs,121,Younger,1,"<?xml version=""1.0""?>\n<Clock xmlns:dt=""urn:schemas-microsoft-com:datatypes""><Description dt:dt=""string"">E-Prime Primary Realtime Clock</Description><StartTime><Timestamp dt:dt=""int"">0</Timestamp><DateUtc dt:dt=""string"">2019-11-14T22:07:46Z</DateUtc></StartTime><FrequencyChanges><FrequencyChange><Frequency dt:dt=""r8"">10000000</Frequency><Timestamp dt:dt=""r8"">149598282545</Timestamp><Current dt:dt=""r8"">0</Current><DateUtc dt:dt=""string"">2019-11-14T22:07:46Z</DateUtc></FrequencyChange></FrequencyChanges></Clock>\n",Demo_Q_YAs-121-1,75.015,1.0.0.66,1,-722932079,1,Full,3.0.3.80,3.0.3.80,14/11/2019,,17:07:46,3.0.3.82,Keyboard,1,Keyboard,19{ENTER},3654,Keyboard,10{/}11{/}2000{ENTER},7699,Diploma/GED,Button,13,Button,Yes,Button,Asian or Pacific Islander,Button,Female,Button,Right hand,Button,Phase1,Proc1,Superblock,1,1,1,Keyboard,,,,,,,,
Demo_Q_YAs,122,Younger,2,"<?xml version=""1.0""?>\n<Clock xmlns:dt=""urn:schemas-microsoft-com:datatypes""><Description dt:dt=""string"">E-Prime Primary Realtime Clock</Description><StartTime><Timestamp dt:dt=""int"">0</Timestamp><DateUtc dt:dt=""string"">2019-11-18T19:02:07Z</DateUtc></StartTime><FrequencyChanges><FrequencyChange><Frequency dt:dt=""r8"">10000000</Frequency><Timestamp dt:dt=""r8"">8777718057903</Timestamp><Current dt:dt=""r8"">0</Current><DateUtc dt:dt=""string"">2019-11-18T19:02:07Z</DateUtc></FrequencyChange></FrequencyChanges></Clock>\n",Demo_Q_YAs-122-2,75.014,1.0.0.66,1,-1192502958,1,Full,3.0.3.80,3.0.3.80,18/11/2019,18/11/2019 19:02,14:02:07,3.0.3.82,Keyboard,1,Keyboard,18{ENTER},2809,Keyboard,11{/}26{/}2000{ENTER},8742,Diploma/GED,Button,12,Button,Yes,Button,African American,Button,Female,Button,Right hand,Button,Phase1,Proc1,Superblock,1,1,1,Keyboard,,,,,,,,
Demo_Q_YAs,123,Younger,3,"<?xml version=""1.0""?>\n<Clock xmlns:dt=""urn:schemas-microsoft-com:datatypes""><Description dt:dt=""string"">E-Prime Primary Realtime Clock</Description><StartTime><Timestamp dt:dt=""int"">0</Timestamp><DateUtc dt:dt=""string"">2019-11-18T22:02:25Z</DateUtc></StartTime><FrequencyChanges><FrequencyChange><Frequency dt:dt=""r8"">10000000</Frequency><Timestamp dt:dt=""r8"">8885896669271</Timestamp><Current dt:dt=""r8"">0</Current><DateUtc dt:dt=""string"">2019-11-18T22:02:25Z</DateUtc></FrequencyChange></FrequencyChanges></Clock>\n",Demo_Q_YAs-123-3,75.024,1.0.0.66,1,-388083946,1,Full,3.0.3.80,3.0.3.80,18/11/2019,,17:02:25,3.0.3.82,Keyboard,1,Keyboard,18{ENTER},2138,Keyboard,11{/}06{/}2001{ENTER},7570,Diploma/GED,Button,12,Button,Yes,Button,African American,Button,Female,Button,Right hand,Button,Phase1,Proc1,Superblock,1,1,1,Keyboard,,,,,,,,
Demo_Q_YAs,124,Younger,4,"<?xml version=""1.0""?>\n<Clock xmlns:dt=""urn:schemas-microsoft-com:datatypes""><Description dt:dt=""string"">E-Prime Primary Realtime Clock</Description><StartTime><Timestamp dt:dt=""int"">0</Timestamp><DateUtc dt:dt=""string"">2019-11-19T16:24:47Z</DateUtc></StartTime><FrequencyChanges><FrequencyChange><Frequency dt:dt=""r8"">10000000</Frequency><Timestamp dt:dt=""r8"">27425052845908</Timestamp><Current dt:dt=""r8"">0</Current><DateUtc dt:dt=""string"">2019-11-19T16:24:47Z</DateUtc></FrequencyChange></FrequencyChanges></Clock>\n",Demo_Q_YAs-124-4,75.006,1.0.0.66,1,1689662929,1,Full,3.0.3.80,3.0.3.80,19/11/2019,19/11/2019 16:24,11:24:48,3.0.3.82,Keyboard,1,Keyboard,18{ENTER},26459,Keyboard,{ENTER},5432,Diploma/GED,Button,12,Button,Yes,Button,Caucasian ,Button,Female,Button,Right hand,Button,Phase1,Proc1,Superblock,1,1,1,Keyboard,,,,,,,,
Demo_Q_YAs,125,Younger,5,"<?xml version=""1.0""?>\n<Clock xmlns:dt=""urn:schemas-microsoft-com:datatypes""><Description dt:dt=""string"">E-Prime Primary Realtime Clock</Description><StartTime><Timestamp dt:dt=""int"">0</Timestamp><DateUtc dt:dt=""string"">2019-11-19T21:54:06Z</DateUtc></StartTime><FrequencyChanges><FrequencyChange><Frequency dt:dt=""r8"">10000000</Frequency><Timestamp dt:dt=""r8"">9744905261287</Timestamp><Current dt:dt=""r8"">0</Current><DateUtc dt:dt=""string"">2019-11-19T21:54:06Z</DateUtc></FrequencyChange></FrequencyChanges></Clock>\n",Demo_Q_YAs-125-5,75.009,1.0.0.66,1,-372971896,1,Full,3.0.3.80,3.0.3.80,19/11/2019,19/11/2019 21:54,16:54:07,3.0.3.82,Keyboard,1,Keyboard,18{ENTER},2940,Keyboard,10162001{ENTER},8357,Diploma/GED,Button,12,Button,Yes,Button,African American,Button,Female,Button,Right hand,Button,Phase1,Proc1,Superblock,1,1,1,Keyboard,,,,,,,,
Demo_Q_YAs,126,Younger,1,"<?xml version=""1.0""?>\n<Clock xmlns:dt=""urn:schemas-microsoft-com:datatypes""><Description dt:dt=""string"">E-Prime Primary Realtime Clock</Description><StartTime><Timestamp dt:dt=""int"">0</Timestamp><DateUtc dt:dt=""string"">2019-11-20T19:18:17Z</DateUtc></StartTime><FrequencyChanges><FrequencyChange><Frequency dt:dt=""r8"">10000000</Frequency><Timestamp dt:dt=""r8"">10515408633249</Timestamp><Current dt:dt=""r8"">0</Current><DateUtc dt:dt=""string"">2019-11-20T19:18:17Z</DateUtc></FrequencyChange></FrequencyChanges></Clock>\n",Demo_Q_YAs-126-1,75.026,1.0.0.66,1,1331421499,1,Full,3.0.3.80,3.0.3.80,20/11/2019,20/11/2019 19:18,14:18:17,3.0.3.82,Keyboard,1,Keyboard,18{ENTER},2156,Keyboard,05{/}22{/}2001{ENTER},11836,Diploma/GED,Button,13,Button,Yes,Button,Caucasian |African American|Asian or Pacific Islander|American Indian or Native American,Button,Female,Button,Right hand,Button,Phase1,Proc1,Superblock,1,1,1,Keyboard,,,,,,,,
Demo_Q_YAs,127,Younger,2,"<?xml version=""1.0""?>\n<Clock xmlns:dt=""urn:schemas-microsoft-com:datatypes""><Description dt:dt=""string"">E-Prime Primary Realtime Clock</Description><StartTime><Timestamp dt:dt=""int"">0</Timestamp><DateUtc dt:dt=""string"">2019-11-20T20:14:51Z</DateUtc></StartTime><FrequencyChanges><FrequencyChange><Frequency dt:dt=""r8"">10000000</Frequency><Timestamp dt:dt=""r8"">10549348402097</Timestamp><Current dt:dt=""r8"">0</Current><DateUtc dt:dt=""string"">2019-11-20T20:14:51Z</DateUtc></FrequencyChange></FrequencyChanges></Clock>\n",Demo_Q_YAs-127-2,75.013,1.0.0.66,1,911315233,1,Full,3.0.3.80,3.0.3.80,20/11/2019,20/11/2019 20:14,15:14:51,3.0.3.82,Keyboard,1,Keyboard,18{ENTER},2856,Keyboard,12{/}28{/}2000{ENTER},8447,Diploma/GED,Button,12,Button,Yes,Button,Caucasian ,Button,Female,Button,Right hand,Button,Phase1,Proc1,Superblock,1,1,1,Keyboard,,,,,,,,
Demo_Q_YAs,128,Younger,3,"<?xml version=""1.0""?>\n<Clock xmlns:dt=""urn:schemas-microsoft-com:datatypes""><Description dt:dt=""string"">E-Prime Primary Realtime Clock</Description><StartTime><Timestamp dt:dt=""int"">0</Timestamp><DateUtc dt:dt=""string"">2019-11-20T21:30:46Z</DateUtc></StartTime><FrequencyChanges><FrequencyChange><Frequency dt:dt=""r8"">10000000</Frequency><Timestamp dt:dt=""r8"">10594896415411</Timestamp><Current dt:dt=""r8"">0</Current><DateUtc dt:dt=""string"">2019-11-20T21:30:46Z</DateUtc></FrequencyChange></FrequencyChanges></Clock>\n",Demo_Q_YAs-128-3,75.008,1.0.0.66,1,-785321317,1,Full,3.0.3.80,3.0.3.80,20/11/2019,20/11/2019 21:30,16:30:46,3.0.3.82,Keyboard,1,Keyboard,20{ENTER},2310,Keyboard,10{/}22{/}99{ENTER},8312,Diploma/GED,Button,14,Button,Yes,Button,African American,Button,Male,Button,Right hand,Button,Phase1,Proc1,Superblock,1,1,1,Keyboard,,,,,,,,
Demo_Q_YAs,129,Younger,4,"<?xml version=""1.0""?>\n<Clock xmlns:dt=""urn:schemas-microsoft-com:datatypes""><Description dt:dt=""string"">E-Prime Primary Realtime Clock</Description><StartTime><Timestamp dt:dt=""int"">0</Timestamp><DateUtc dt:dt=""string"">2019-11-21T14:05:03Z</DateUtc></StartTime><FrequencyChanges><FrequencyChange><Frequency dt:dt=""r8"">10000000</Frequency><Timestamp dt:dt=""r8"">507761226</Timestamp><Current dt:dt=""r8"">0</Current><DateUtc dt:dt=""string"">2019-11-21T14:05:03Z</DateUtc></FrequencyChange></FrequencyChanges></Clock>\n",Demo_Q_YAs-129-4,75.009,1.0.0.66,1,510405868,1,Full,3.0.3.80,3.0.3.80,21/11/2019,21/11/2019 14:05,9:05:04,3.0.3.82,Keyboard,1,Keyboard,20{ENTER},2103,Keyboard,11{/}28{/}1998{ENTER},8766,Diploma/GED,Button,15,Button,Yes,Button,Caucasian ,Button,Female,Button,Right hand,Button,Phase1,Proc1,Superblock,1,1,1,Keyboard,,,,,,,,
Demo_Q_YAs,130,Younger,5,"<?xml version=""1.0""?>\n<Clock xmlns:dt=""urn:schemas-microsoft-com:datatypes""><Description dt:dt=""string"">E-Prime Primary Realtime Clock</Description><StartTime><Timestamp dt:dt=""int"">0</Timestamp><DateUtc dt:dt=""string"">2019-11-21T18:46:32Z</DateUtc></StartTime><FrequencyChanges><FrequencyChange><Frequency dt:dt=""r8"">10000000</Frequency><Timestamp dt:dt=""r8"">29274272125544</Timestamp><Current dt:dt=""r8"">0</Current><DateUtc dt:dt=""string"">2019-11-21T18:46:32Z</DateUtc></FrequencyChange></FrequencyChanges></Clock>\n",Demo_Q_YAs-130-5,75.011,1.0.0.66,1,-222348806,1,Full,3.0.3.80,3.0.3.80,21/11/2019,21/11/2019 18:46,13:46:32,3.0.3.82,Keyboard,1,Keyboard,18{ENTER},2800,Keyboard,07{/}31{/}01{ENTER},18598,Bachelors,Button,12,Button,Yes,Button,Caucasian ,Button,Female,Button,Right hand,Button,Phase1,Proc1,Superblock,1,1,1,Keyboard,,,,,,,,
Demo_Q_YAs,131,Younger,1,"<?xml version=""1.0""?>\n<Clock xmlns:dt=""urn:schemas-microsoft-com:datatypes""><Description dt:dt=""string"">E-Prime Primary Realtime Clock</Description><StartTime><Timestamp dt:dt=""int"">0</Timestamp><DateUtc dt:dt=""string"">2019-11-25T17:39:42Z</DateUtc></StartTime><FrequencyChanges><FrequencyChange><Frequency dt:dt=""r8"">10000000</Frequency><Timestamp dt:dt=""r8"">2414262380990</Timestamp><Current dt:dt=""r8"">0</Current><DateUtc dt:dt=""string"">2019-11-25T17:39:42Z</DateUtc></FrequencyChange></FrequencyChanges></Clock>\n",Demo_Q_YAs-131-1,75.024,1.0.0.66,1,493403441,1,Full,3.0.3.80,3.0.3.80,25/11/2019,25/11/2019 17:39,12:39:42,3.0.3.82,Keyboard,1,Keyboard,18{ENTER},2749,Keyboard,031501{LEFTARROW}{LEFTARROW}{ENTER},9371,Diploma/GED,Button,12,Button,Yes,Button,Caucasian |African American,Button,Female,Button,Right hand,Button,Phase1,Proc1,Superblock,1,1,1,Keyboard,,,,,,,,
Demo_Q_YAs,132,Younger,2,"<?xml version=""1.0""?>\n<Clock xmlns:dt=""urn:schemas-microsoft-com:datatypes""><Description dt:dt=""string"">E-Prime Primary Realtime Clock</Description><StartTime><Timestamp dt:dt=""int"">0</Timestamp><DateUtc dt:dt=""string"">2019-11-25T20:47:32Z</DateUtc></StartTime><FrequencyChanges><FrequencyChange><Frequency dt:dt=""r8"">10000000</Frequency><Timestamp dt:dt=""r8"">2521386324997</Timestamp><Current dt:dt=""r8"">0</Current><DateUtc dt:dt=""string"">2019-11-25T20:47:32Z</DateUtc></FrequencyChange></FrequencyChanges></Clock>\n",Demo_Q_YAs-132-2,75.015,1.0.0.66,1,243107989,1,Full,3.0.3.80,3.0.3.80,25/11/2019,25/11/2019 20:47,15:47:33,3.0.3.82,Keyboard,1,Keyboard,18{ENTER},2272,Keyboard,07{/}19{/}2001{ENTER},6482,Diploma/GED,Button,12,Button,Yes,Button,Caucasian ,Button,Male,Button,Right hand,Button,Phase1,Proc1,Superblock,1,1,1,Keyboard,,,,,,,,
Demo_Q_YAs,133,Younger,3,"<?xml version=""1.0""?>\n<Clock xmlns:dt=""urn:schemas-microsoft-com:datatypes""><Description dt:dt=""string"">E-Prime Primary Realtime Clock</Description><StartTime><Timestamp dt:dt=""int"">0</Timestamp><DateUtc dt:dt=""string"">2019-11-25T21:59:21Z</DateUtc></StartTime><FrequencyChanges><FrequencyChange><Frequency dt:dt=""r8"">10000000</Frequency><Timestamp dt:dt=""r8"">2570047695836</Timestamp><Current dt:dt=""r8"">0</Current><DateUtc dt:dt=""string"">2019-11-25T21:59:21Z</DateUtc></FrequencyChange></FrequencyChanges></Clock>\n",Demo_Q_YAs-133-3,75.027,1.0.0.66,1,1659865174,1,Full,3.0.3.80,3.0.3.80,25/11/2019,25/11/2019 21:59,16:59:21,3.0.3.82,Keyboard,1,Keyboard,18{ENTER},2619,Keyboard,01{/}02{/}2001{ENTER},11169,Diploma/GED,Button,12,Button,Yes,Button,Caucasian |Asian or Pacific Islander,Button,Female,Button,Right hand,Button,Phase1,Proc1,Superblock,1,1,1,Keyboard,,,,,,,,
Demo_Q_YAs,134,Younger,4,"<?xml version=""1.0""?>\n<Clock xmlns:dt=""urn:schemas-microsoft-com:datatypes""><Description dt:dt=""string"">E-Prime Primary Realtime Clock</Description><StartTime><Timestamp dt:dt=""int"">0</Timestamp><DateUtc dt:dt=""string"">2019-11-26T14:01:21Z</DateUtc></StartTime><FrequencyChanges><FrequencyChange><Frequency dt:dt=""r8"">10000000</Frequency><Timestamp dt:dt=""r8"">3141667377679</Timestamp><Current dt:dt=""r8"">0</Current><DateUtc dt:dt=""string"">2019-11-26T14:01:21Z</DateUtc></FrequencyChange></FrequencyChanges></Clock>\n",Demo_Q_YAs-134-4,75.026,1.0.0.66,1,2048990562,1,Full,3.0.3.80,3.0.3.80,26/11/2019,26/11/2019 14:01,9:01:21,3.0.3.82,Keyboard,1,Keyboard,20{ENTER},4058,Keyboard,01031999{ENTER},6410,Diploma/GED,Button,13,Button,Yes,Button,African American|Hispanic or Latino,Button,Male,Button,Right hand,Button,Phase1,Proc1,Superblock,1,1,1,Keyboard,,,,,,,,
Demo_Q_YAs,135,Younger,5,"<?xml version=""1.0""?>\n<Clock xmlns:dt=""urn:schemas-microsoft-com:datatypes""><Description dt:dt=""string"">E-Prime Primary Realtime Clock</Description><StartTime><Timestamp dt:dt=""int"">0</Timestamp><DateUtc dt:dt=""string"">2019-11-26T15:02:59Z</DateUtc></StartTime><FrequencyChanges><FrequencyChange><Frequency dt:dt=""r8"">10000000</Frequency><Timestamp dt:dt=""r8"">3178648123459</Timestamp><Current dt:dt=""r8"">0</Current><DateUtc dt:dt=""string"">2019-11-26T15:02:59Z</DateUtc></FrequencyChange></FrequencyChanges></Clock>\n",Demo_Q_YAs-135-5,75.008,1.0.0.66,1,375027523,1,Full,3.0.3.80,3.0.3.80,26/11/2019,26/11/2019 15:02,10:02:59,3.0.3.82,Keyboard,1,Keyboard,18{ENTER},2896,Keyboard,10{/}08{/}2001{ENTER},7802,Diploma/GED,Button,12,Button,Yes,Button,African American,Button,Female,Button,Right hand,Button,Phase1,Proc1,Superblock,1,1,1,Keyboard,,,,,,,,
Demo_Q_YAs,136,Younger,1,"<?xml version=""1.0""?>\n<Clock xmlns:dt=""urn:schemas-microsoft-com:datatypes""><Description dt:dt=""string"">E-Prime Primary Realtime Clock</Description><StartTime><Timestamp dt:dt=""int"">0</Timestamp><DateUtc dt:dt=""string"">2019-12-02T19:03:02Z</DateUtc></StartTime><FrequencyChanges><FrequencyChange><Frequency dt:dt=""r8"">10000000</Frequency><Timestamp dt:dt=""r8"">8510475364569</Timestamp><Current dt:dt=""r8"">0</Current><DateUtc dt:dt=""string"">2019-12-02T19:03:02Z</DateUtc></FrequencyChange></FrequencyChanges></Clock>\n",Demo_Q_YAs-136-1,75.027,1.0.0.66,1,-2146805138,1,Full,3.0.3.80,3.0.3.80,2/12/19,2/12/19 19:03,14:03:02,3.0.3.82,Keyboard,1,Keyboard,19{ENTER},1709,Keyboard,12{/}19{/}1999{ENTER},7879,Diploma/GED,Button,13,Button,Yes,Button,African American,Button,Male,Button,Right hand,Button,Phase1,Proc1,Superblock,1,1,1,Keyboard,,,,,,,,
Demo_Q_YAs,137,Younger,2,"<?xml version=""1.0""?>\n<Clock xmlns:dt=""urn:schemas-microsoft-com:datatypes""><Description dt:dt=""string"">E-Prime Primary Realtime Clock</Description><StartTime><Timestamp dt:dt=""int"">0</Timestamp><DateUtc dt:dt=""string"">2019-12-03T15:17:14Z</DateUtc></StartTime><FrequencyChanges><FrequencyChange><Frequency dt:dt=""r8"">10000000</Frequency><Timestamp dt:dt=""r8"">9235172916218</Timestamp><Current dt:dt=""r8"">0</Current><DateUtc dt:dt=""string"">2019-12-03T15:17:14Z</DateUtc></FrequencyChange></FrequencyChanges></Clock>\n",Demo_Q_YAs-137-2,75.012,1.0.0.66,1,995800481,1,Full,3.0.3.80,3.0.3.80,3/12/19,3/12/19 15:17,10:17:14,3.0.3.82,Keyboard,1,Keyboard,18{ENTER},2248,Keyboard,06{/}24{/}2001{ENTER},9753,Diploma/GED,Button,12,Button,Yes,Button,African American,Button,Female,Button,Right hand,Button,Phase1,Proc1,Superblock,1,1,1,Keyboard,,,,,,,,
Demo_Q_YAs,138,Younger,3,"<?xml version=""1.0""?>\n<Clock xmlns:dt=""urn:schemas-microsoft-com:datatypes""><Description dt:dt=""string"">E-Prime Primary Realtime Clock</Description><StartTime><Timestamp dt:dt=""int"">0</Timestamp><DateUtc dt:dt=""string"">2019-12-03T22:06:53Z</DateUtc></StartTime><FrequencyChanges><FrequencyChange><Frequency dt:dt=""r8"">10000000</Frequency><Timestamp dt:dt=""r8"">9480964948974</Timestamp><Current dt:dt=""r8"">0</Current><DateUtc dt:dt=""string"">2019-12-03T22:06:53Z</DateUtc></FrequencyChange></FrequencyChanges></Clock>\n",Demo_Q_YAs-138-3,75.032,1.0.0.66,1,1974703783,1,Full,3.0.3.80,3.0.3.80,3/12/19,,17:06:54,3.0.3.82,Keyboard,1,Keyboard,18{ENTER},1876,Keyboard,07{/}11{/}2001{ENTER},11223,Diploma/GED,Button,12,Button,Yes,Button,Other,Button,Female,Button,Right hand,Button,Phase1,Proc1,Superblock,1,1,1,Keyboard,,,,,,,,
Demo_Q_YAs,139,Younger,4,"<?xml version=""1.0""?>\n<Clock xmlns:dt=""urn:schemas-microsoft-com:datatypes""><Description dt:dt=""string"">E-Prime Primary Realtime Clock</Description><StartTime><Timestamp dt:dt=""int"">0</Timestamp><DateUtc dt:dt=""string"">2019-12-04T14:53:44Z</DateUtc></StartTime><FrequencyChanges><FrequencyChange><Frequency dt:dt=""r8"">10000000</Frequency><Timestamp dt:dt=""r8"">10090634553308</Timestamp><Current dt:dt=""r8"">0</Current><DateUtc dt:dt=""string"">2019-12-04T14:53:44Z</DateUtc></FrequencyChange></FrequencyChanges></Clock>\n",Demo_Q_YAs-139-4,75.025,1.0.0.66,1,1759012417,1,Full,3.0.3.80,3.0.3.80,4/12/19,4/12/19 14:53,9:53:44,3.0.3.82,Keyboard,1,Keyboard,19{ENTER},2781,Keyboard,11{/}09{/}2000{ENTER},9504,Diploma/GED,Button,12,Button,Yes,Button,Caucasian ,Button,Male,Button,Right hand,Button,Phase1,Proc1,Superblock,1,1,1,Keyboard,,,,,,,,
Demo_Q_YAs,140,Younger,5,"<?xml version=""1.0""?>\n<Clock xmlns:dt=""urn:schemas-microsoft-com:datatypes""><Description dt:dt=""string"">E-Prime Primary Realtime Clock</Description><StartTime><Timestamp dt:dt=""int"">0</Timestamp><DateUtc dt:dt=""string"">2019-12-04T16:02:54Z</DateUtc></StartTime><FrequencyChanges><FrequencyChange><Frequency dt:dt=""r8"">10000000</Frequency><Timestamp dt:dt=""r8"">10126569971363</Timestamp><Current dt:dt=""r8"">0</Current><DateUtc dt:dt=""string"">2019-12-04T16:02:54Z</DateUtc></FrequencyChange></FrequencyChanges></Clock>\n",Demo_Q_YAs-140-5,75.009,1.0.0.66,1,-960294282,1,Full,3.0.3.80,3.0.3.80,4/12/19,4/12/19 16:02,11:02:55,3.0.3.82,Keyboard,1,Keyboard,20{ENTER},2592,Keyboard,11{/}03{/}1999{ENTER},13245,Associates,Button,15,Button,Yes,Button,Other,Button,Female,Button,Right hand,Button,Phase1,Proc1,Superblock,1,1,1,Keyboard,,,,,,,,
Demo_Q_YAs,141,Younger,1,"<?xml version=""1.0""?>\n<Clock xmlns:dt=""urn:schemas-microsoft-com:datatypes""><Description dt:dt=""string"">E-Prime Primary Realtime Clock</Description><StartTime><Timestamp dt:dt=""int"">0</Timestamp><DateUtc dt:dt=""string"">2019-12-04T19:09:50Z</DateUtc></StartTime><FrequencyChanges><FrequencyChange><Frequency dt:dt=""r8"">10000000</Frequency><Timestamp dt:dt=""r8"">10244299137081</Timestamp><Current dt:dt=""r8"">0</Current><DateUtc dt:dt=""string"">2019-12-04T19:09:50Z</DateUtc></FrequencyChange></FrequencyChanges></Clock>\n",Demo_Q_YAs-141-1,75.015,1.0.0.66,1,804801456,1,Full,3.0.3.80,3.0.3.80,4/12/19,4/12/19 19:09,14:09:50,3.0.3.82,Keyboard,1,Keyboard,18{ENTER},1883,Keyboard,01232001{ENTER},5998,Diploma/GED,Button,13,Button,No,Button,Asian or Pacific Islander,Button,Female,Button,Right hand,Button,Phase1,Proc1,Superblock,1,1,1,Keyboard,,,,,,,,
Demo_Q_YAs,142,Younger,2,"<?xml version=""1.0""?>\n<Clock xmlns:dt=""urn:schemas-microsoft-com:datatypes""><Description dt:dt=""string"">E-Prime Primary Realtime Clock</Description><StartTime><Timestamp dt:dt=""int"">0</Timestamp><DateUtc dt:dt=""string"">2019-12-05T15:14:57Z</DateUtc></StartTime><FrequencyChanges><FrequencyChange><Frequency dt:dt=""r8"">10000000</Frequency><Timestamp dt:dt=""r8"">10967363965910</Timestamp><Current dt:dt=""r8"">0</Current><DateUtc dt:dt=""string"">2019-12-05T15:14:57Z</DateUtc></FrequencyChange></FrequencyChanges></Clock>\n",Demo_Q_YAs-142-2,75.01,1.0.0.66,1,-1979599768,1,Full,3.0.3.80,3.0.3.80,5/12/19,5/12/19 15:14,10:14:57,3.0.3.82,Keyboard,1,Keyboard,18{ENTER},2369,Keyboard,012501{ENTER},9056,Diploma/GED,Button,13,Button,Yes,Button,Hispanic or Latino,Button,Female,Button,Right hand,Button,Phase1,Proc1,Superblock,1,1,1,Keyboard,,,,,,,,
Demo_Q_YAs,143,Younger,3,"<?xml version=""1.0""?>\n<Clock xmlns:dt=""urn:schemas-microsoft-com:datatypes""><Description dt:dt=""string"">E-Prime Primary Realtime Clock</Description><StartTime><Timestamp dt:dt=""int"">0</Timestamp><DateUtc dt:dt=""string"">2019-12-05T17:47:25Z</DateUtc></StartTime><FrequencyChanges><FrequencyChange><Frequency dt:dt=""r8"">10000000</Frequency><Timestamp dt:dt=""r8"">11053271502259</Timestamp><Current dt:dt=""r8"">0</Current><DateUtc dt:dt=""string"">2019-12-05T17:47:25Z</DateUtc></FrequencyChange></FrequencyChanges></Clock>\n",Demo_Q_YAs-143-3,75.006,1.0.0.66,1,-1971418957,1,Full,3.0.3.80,3.0.3.80,5/12/19,5/12/19 17:47,12:47:25,3.0.3.82,Keyboard,1,Keyboard,19{ENTER},2025,Keyboard,11{/}03{/}2000{ENTER},9310,Diploma/GED,Button,12,Button,Yes,Button,African American,Button,Female,Button,Right hand,Button,Phase1,Proc1,Superblock,1,1,1,Keyboard,,,,,,,,
Demo_Q_YAs,144,Younger,4,"<?xml version=""1.0""?>\n<Clock xmlns:dt=""urn:schemas-microsoft-com:datatypes""><Description dt:dt=""string"">E-Prime Primary Realtime Clock</Description><StartTime><Timestamp dt:dt=""int"">0</Timestamp><DateUtc dt:dt=""string"">2020-01-15T21:44:59Z</DateUtc></StartTime><FrequencyChanges><FrequencyChange><Frequency dt:dt=""r8"">10000000</Frequency><Timestamp dt:dt=""r8"">22433751558354</Timestamp><Current dt:dt=""r8"">0</Current><DateUtc dt:dt=""string"">2020-01-15T21:44:59Z</DateUtc></FrequencyChange></FrequencyChanges></Clock>\n",Demo_Q_YAs-144-4,75.021,1.0.0.66,1,1139948750,1,Full,3.0.3.80,3.0.3.80,15/01/2020,15/01/2020 21:44,16:44:59,3.0.3.82,Keyboard,1,Keyboard,18{ENTER},3146,Keyboard,05{/}22{/}2001{ENTER},9929,Diploma/GED,Button,13,Button,Yes,Button,African American,Button,Female,Button,Right hand,Button,Phase1,Proc1,Superblock,1,1,1,Keyboard,,,,,,,,
Demo_Q_YAs,145,Younger,5,"<?xml version=""1.0""?>\n<Clock xmlns:dt=""urn:schemas-microsoft-com:datatypes""><Description dt:dt=""string"">E-Prime Primary Realtime Clock</Description><StartTime><Timestamp dt:dt=""int"">0</Timestamp><DateUtc dt:dt=""string"">2020-01-16T17:45:15Z</DateUtc></StartTime><FrequencyChanges><FrequencyChange><Frequency dt:dt=""r8"">10000000</Frequency><Timestamp dt:dt=""r8"">23153915442378</Timestamp><Current dt:dt=""r8"">0</Current><DateUtc dt:dt=""string"">2020-01-16T17:45:15Z</DateUtc></FrequencyChange></FrequencyChanges></Clock>\n",Demo_Q_YAs-145-5,75.009,1.0.0.66,1,-250580492,1,Full,3.0.3.80,3.0.3.80,16/01/2020,16/01/2020 17:45,12:45:16,3.0.3.82,Keyboard,1,Keyboard,18{ENTER},3535,Keyboard,06282001{ENTER},5176,Diploma/GED,Button,12,Button,Yes,Button,Hispanic or Latino,Button,Female,Button,Left hand ,Button,Phase1,Proc1,Superblock,1,1,1,Keyboard,,,,,,,,
Demo_Q_YAs,146,Younger,1,"<?xml version=""1.0""?>\n<Clock xmlns:dt=""urn:schemas-microsoft-com:datatypes""><Description dt:dt=""string"">E-Prime Primary Realtime Clock</Description><StartTime><Timestamp dt:dt=""int"">0</Timestamp><DateUtc dt:dt=""string"">2020-01-16T20:16:33Z</DateUtc></StartTime><FrequencyChanges><FrequencyChange><Frequency dt:dt=""r8"">10000000</Frequency><Timestamp dt:dt=""r8"">47430774814054</Timestamp><Current dt:dt=""r8"">0</Current><DateUtc dt:dt=""string"">2020-01-16T20:16:33Z</DateUtc></FrequencyChange></FrequencyChanges></Clock>\n",Demo_Q_YAs-146-1,75.014,1.0.0.66,1,1453628190,1,Full,3.0.3.80,3.0.3.80,16/01/2020,16/01/2020 20:16,15:16:33,3.0.3.82,Keyboard,1,Keyboard,19{ENTER},2028,Keyboard,10{/}17{/}2000{ENTER},10571,Diploma/GED,Button,12,Button,Yes,Button,Caucasian ,Button,Female,Button,Right hand,Button,Phase1,Proc1,Superblock,1,1,1,Keyboard,,,,,,,,
Demo_Q_YAs,147,Younger,2,"<?xml version=""1.0""?>\n<Clock xmlns:dt=""urn:schemas-microsoft-com:datatypes""><Description dt:dt=""string"">E-Prime Primary Realtime Clock</Description><StartTime><Timestamp dt:dt=""int"">0</Timestamp><DateUtc dt:dt=""string"">2020-01-17T15:06:53Z</DateUtc></StartTime><FrequencyChanges><FrequencyChange><Frequency dt:dt=""r8"">10000000</Frequency><Timestamp dt:dt=""r8"">23922883041699</Timestamp><Current dt:dt=""r8"">0</Current><DateUtc dt:dt=""string"">2020-01-17T15:06:53Z</DateUtc></FrequencyChange></FrequencyChanges></Clock>\n",Demo_Q_YAs-147-2,75.007,1.0.0.66,1,-81791985,1,Full,3.0.3.80,3.0.3.80,17/01/2020,17/01/2020 15:06,10:06:53,3.0.3.82,Keyboard,1,Keyboard,18{ENTER},4129,Keyboard,04{/}06{/}2001{ENTER},13255,Diploma/GED,Button,12,Button,Yes,Button,African American,Button,Female,Button,Right hand,Button,Phase1,Proc1,Superblock,1,1,1,Keyboard,,,,,,,,
Demo_Q_YAs,148,Younger,3,"<?xml version=""1.0""?>\n<Clock xmlns:dt=""urn:schemas-microsoft-com:datatypes""><Description dt:dt=""string"">E-Prime Primary Realtime Clock</Description><StartTime><Timestamp dt:dt=""int"">0</Timestamp><DateUtc dt:dt=""string"">2020-01-17T19:07:36Z</DateUtc></StartTime><FrequencyChanges><FrequencyChange><Frequency dt:dt=""r8"">10000000</Frequency><Timestamp dt:dt=""r8"">24067318107660</Timestamp><Current dt:dt=""r8"">0</Current><DateUtc dt:dt=""string"">2020-01-17T19:07:36Z</DateUtc></FrequencyChange></FrequencyChanges></Clock>\n",Demo_Q_YAs-148-3,75.019,1.0.0.66,1,-1675929808,1,Full,3.0.3.80,3.0.3.80,17/01/2020,17/01/2020 19:07,14:07:37,3.0.3.82,Keyboard,1,Keyboard,18{ENTER},1929,Keyboard,30302001{ENTER},8008,Diploma/GED,Button,13,Button,Yes,Button,Caucasian ,Button,Female,Button,Right hand,Button,Phase1,Proc1,Superblock,1,1,1,Keyboard,,,,,,,,
Demo_Q_YAs,149,Younger,4,"<?xml version=""1.0""?>\n<Clock xmlns:dt=""urn:schemas-microsoft-com:datatypes""><Description dt:dt=""string"">E-Prime Primary Realtime Clock</Description><StartTime><Timestamp dt:dt=""int"">0</Timestamp><DateUtc dt:dt=""string"">2020-01-17T16:23:24Z</DateUtc></StartTime><FrequencyChanges><FrequencyChange><Frequency dt:dt=""r8"">10000000</Frequency><Timestamp dt:dt=""r8"">23968792450838</Timestamp><Current dt:dt=""r8"">0</Current><DateUtc dt:dt=""string"">2020-01-17T16:23:24Z</DateUtc></FrequencyChange></FrequencyChanges></Clock>\n",Demo_Q_YAs-149-4,75.008,1.0.0.66,1,-1417437770,1,Full,3.0.3.80,3.0.3.80,17/01/2020,17/01/2020 16:23,11:23:24,3.0.3.82,Keyboard,1,Keyboard,18{ENTER},2933,Keyboard,04{/}17{/}2001{SPACE}{ENTER},22732,Diploma/GED,Button,12,Button,Yes,Button,Caucasian ,Button,Female,Button,Right hand,Button,Phase1,Proc1,Superblock,1,1,1,Keyboard,,,,,,,,
Demo_Q_YAs,150,Younger,5,"<?xml version=""1.0""?>\n<Clock xmlns:dt=""urn:schemas-microsoft-com:datatypes""><Description dt:dt=""string"">E-Prime Primary Realtime Clock</Description><StartTime><Timestamp dt:dt=""int"">0</Timestamp><DateUtc dt:dt=""string"">2020-01-17T20:00:04Z</DateUtc></StartTime><FrequencyChanges><FrequencyChange><Frequency dt:dt=""r8"">10000000</Frequency><Timestamp dt:dt=""r8"">24098792005608</Timestamp><Current dt:dt=""r8"">0</Current><DateUtc dt:dt=""string"">2020-01-17T20:00:04Z</DateUtc></FrequencyChange></FrequencyChanges></Clock>\n",Demo_Q_YAs-150-5,75.024,1.0.0.66,1,-266852756,1,Full,3.0.3.80,3.0.3.80,17/01/2020,17/01/2020 20:00,15:00:04,3.0.3.82,Keyboard,1,Keyboard,18{ENTER},2406,Keyboard,02{/}07{/}2001{ENTER},10271,Diploma/GED,Button,12,Button,Yes,Button,Hispanic or Latino,Button,Male,Button,Left hand ,Button,Phase1,Proc1,Superblock,1,1,1,Keyboard,,,,,,,,
Demo_Q_YAs,151,Younger,1,"<?xml version=""1.0""?>\n<Clock xmlns:dt=""urn:schemas-microsoft-com:datatypes""><Description dt:dt=""string"">E-Prime Primary Realtime Clock</Description><StartTime><Timestamp dt:dt=""int"">0</Timestamp><DateUtc dt:dt=""string"">2020-01-21T17:24:33Z</DateUtc></StartTime><FrequencyChanges><FrequencyChange><Frequency dt:dt=""r8"">10000000</Frequency><Timestamp dt:dt=""r8"">3269572547186</Timestamp><Current dt:dt=""r8"">0</Current><DateUtc dt:dt=""string"">2020-01-21T17:24:33Z</DateUtc></FrequencyChange></FrequencyChanges></Clock>\n",Demo_Q_YAs-151-1,75.019,1.0.0.66,1,1105082970,1,Full,3.0.3.80,3.0.3.80,21/01/2020,21/01/2020 17:24,12:24:33,3.0.3.82,Keyboard,1,Keyboard,18{ENTER},2372,Keyboard,06042001{ENTER},8577,Diploma/GED,Button,12,Button,Yes,Button,African American|Hispanic or Latino,Button,Female,Button,Right hand,Button,Phase1,Proc1,Superblock,1,1,1,Keyboard,,,,,,,,
Demo_Q_YAs,152,Younger,2,"<?xml version=""1.0""?>\n<Clock xmlns:dt=""urn:schemas-microsoft-com:datatypes""><Description dt:dt=""string"">E-Prime Primary Realtime Clock</Description><StartTime><Timestamp dt:dt=""int"">0</Timestamp><DateUtc dt:dt=""string"">2020-01-21T22:28:57Z</DateUtc></StartTime><FrequencyChanges><FrequencyChange><Frequency dt:dt=""r8"">10000000</Frequency><Timestamp dt:dt=""r8"">3451927066019</Timestamp><Current dt:dt=""r8"">0</Current><DateUtc dt:dt=""string"">2020-01-21T22:28:57Z</DateUtc></FrequencyChange></FrequencyChanges></Clock>\n",Demo_Q_YAs-152-2,75.017,1.0.0.66,1,-1224048923,1,Full,3.0.3.80,3.0.3.80,21/01/2020,,17:28:57,3.0.3.82,Keyboard,1,Keyboard,19{ENTER},2359,Keyboard,04{/}15{/}2000{ENTER},13378,Diploma/GED,Button,13,Button,Yes,Button,Hispanic or Latino,Button,Female,Button,Right hand,Button,Phase1,Proc1,Superblock,1,1,1,Keyboard,,,,,,,,
Demo_Q_YAs,153,Younger,3,"<?xml version=""1.0""?>\n<Clock xmlns:dt=""urn:schemas-microsoft-com:datatypes""><Description dt:dt=""string"">E-Prime Primary Realtime Clock</Description><StartTime><Timestamp dt:dt=""int"">0</Timestamp><DateUtc dt:dt=""string"">2020-01-22T15:21:02Z</DateUtc></StartTime><FrequencyChanges><FrequencyChange><Frequency dt:dt=""r8"">10000000</Frequency><Timestamp dt:dt=""r8"">4058584657423</Timestamp><Current dt:dt=""r8"">0</Current><DateUtc dt:dt=""string"">2020-01-22T15:21:02Z</DateUtc></FrequencyChange></FrequencyChanges></Clock>\n",Demo_Q_YAs-153-3,75.027,1.0.0.66,1,-156807833,1,Full,3.0.3.80,3.0.3.80,22/01/2020,22/01/2020 15:21,10:21:02,3.0.3.82,Keyboard,1,Keyboard,21{ENTER},1761,Keyboard,02241998{ENTER},5875,Bachelors,Button,15,Button,No,Button,Hispanic or Latino,Button,Female,Button,Right hand,Button,Phase1,Proc1,Superblock,1,1,1,Keyboard,,,,,,,,
Demo_Q_YAs,154,Younger,4,"<?xml version=""1.0""?>\n<Clock xmlns:dt=""urn:schemas-microsoft-com:datatypes""><Description dt:dt=""string"">E-Prime Primary Realtime Clock</Description><StartTime><Timestamp dt:dt=""int"">0</Timestamp><DateUtc dt:dt=""string"">2020-01-17T17:15:16Z</DateUtc></StartTime><FrequencyChanges><FrequencyChange><Frequency dt:dt=""r8"">10000000</Frequency><Timestamp dt:dt=""r8"">48187488952656</Timestamp><Current dt:dt=""r8"">0</Current><DateUtc dt:dt=""string"">2020-01-17T17:15:16Z</DateUtc></FrequencyChange></FrequencyChanges></Clock>\n",Demo_Q_YAs-149-4,75.03,1.0.0.66,1,-2041518082,1,Full,3.0.3.80,3.0.3.80,17/01/2020,17/01/2020 17:15,12:15:16,3.0.3.82,Keyboard,1,Keyboard,18{ENTER},1972,Keyboard,10{/}12{/}2001{SPACE}{ENTER},6305,Diploma/GED,Button,12,Button,Yes,Button,Caucasian |African American|Asian or Pacific Islander,Button,Female,Button,Right hand,Button,Phase1,Proc1,Superblock,1,1,1,Keyboard,,,,,,,,
Demo_Q_YAs,155,Younger,5,"<?xml version=""1.0""?>\n<Clock xmlns:dt=""urn:schemas-microsoft-com:datatypes""><Description dt:dt=""string"">E-Prime Primary Realtime Clock</Description><StartTime><Timestamp dt:dt=""int"">0</Timestamp><DateUtc dt:dt=""string"">2020-01-22T16:18:19Z</DateUtc></StartTime><FrequencyChanges><FrequencyChange><Frequency dt:dt=""r8"">10000000</Frequency><Timestamp dt:dt=""r8"">4092960646043</Timestamp><Current dt:dt=""r8"">0</Current><DateUtc dt:dt=""string"">2020-01-22T16:18:19Z</DateUtc></FrequencyChange></FrequencyChanges></Clock>\n",Demo_Q_YAs-155-5,75.031,1.0.0.66,1,-140522804,1,Full,3.0.3.80,3.0.3.80,22/01/2020,22/01/2020 16:18,11:18:19,3.0.3.82,Keyboard,1,Keyboard,20{ENTER},3376,Keyboard,01202000{ENTER},15137,Diploma/GED,Button,14,Button,Yes,Button,Caucasian ,Button,Female,Button,Right hand,Button,Phase1,Proc1,Superblock,1,1,1,Keyboard,,,,,,,,
Demo_Q_YAs,156,Younger,1,"<?xml version=""1.0""?>\n<Clock xmlns:dt=""urn:schemas-microsoft-com:datatypes""><Description dt:dt=""string"">E-Prime Primary Realtime Clock</Description><StartTime><Timestamp dt:dt=""int"">0</Timestamp><DateUtc dt:dt=""string"">2020-01-23T20:07:04Z</DateUtc></StartTime><FrequencyChanges><FrequencyChange><Frequency dt:dt=""r8"">10000000</Frequency><Timestamp dt:dt=""r8"">5094792907804</Timestamp><Current dt:dt=""r8"">0</Current><DateUtc dt:dt=""string"">2020-01-23T20:07:04Z</DateUtc></FrequencyChange></FrequencyChanges></Clock>\n",Demo_Q_YAs-156-1,75.03,1.0.0.66,1,964245939,1,Full,3.0.3.80,3.0.3.80,23/01/2020,23/01/2020 20:07,15:07:04,3.0.3.82,Keyboard,1,Keyboard,26{ENTER},3549,Keyboard,11{/}03{/}1993{ENTER},10105,Associates,Button,15,Button,Yes,Button,African American,Button,Female,Button,Right hand,Button,Phase1,Proc1,Superblock,1,1,1,Keyboard,,,,,,,,
Demo_Q_YAs,157,Younger,2,"<?xml version=""1.0""?>\n<Clock xmlns:dt=""urn:schemas-microsoft-com:datatypes""><Description dt:dt=""string"">E-Prime Primary Realtime Clock</Description><StartTime><Timestamp dt:dt=""int"">0</Timestamp><DateUtc dt:dt=""string"">2020-01-23T21:56:10Z</DateUtc></StartTime><FrequencyChanges><FrequencyChange><Frequency dt:dt=""r8"">10000000</Frequency><Timestamp dt:dt=""r8"">5160256976436</Timestamp><Current dt:dt=""r8"">0</Current><DateUtc dt:dt=""string"">2020-01-23T21:56:10Z</DateUtc></FrequencyChange></FrequencyChanges></Clock>\n",Demo_Q_YAs-157-2,75.012,1.0.0.66,1,2004270914,1,Full,3.0.3.80,3.0.3.80,23/01/2020,23/01/2020 21:56,16:56:11,3.0.3.82,Keyboard,1,Keyboard,18{ENTER},1896,Keyboard,06{/}06{/}2001{ENTER},7928,Diploma/GED,Button,13,Button,Yes,Button,Caucasian ,Button,Female,Button,Right hand,Button,Phase1,Proc1,Superblock,1,1,1,Keyboard,,,,,,,,
Demo_Q_YAs,158,Younger,3,"<?xml version=""1.0""?>\n<Clock xmlns:dt=""urn:schemas-microsoft-com:datatypes""><Description dt:dt=""string"">E-Prime Primary Realtime Clock</Description><StartTime><Timestamp dt:dt=""int"">0</Timestamp><DateUtc dt:dt=""string"">2020-01-24T15:09:43Z</DateUtc></StartTime><FrequencyChanges><FrequencyChange><Frequency dt:dt=""r8"">10000000</Frequency><Timestamp dt:dt=""r8"">5780657494296</Timestamp><Current dt:dt=""r8"">0</Current><DateUtc dt:dt=""string"">2020-01-24T15:09:43Z</DateUtc></FrequencyChange></FrequencyChanges></Clock>\n",Demo_Q_YAs-158-3,75.013,1.0.0.66,1,-365929489,1,Full,3.0.3.80,3.0.3.80,24/01/2020,24/01/2020 15:09,10:09:43,3.0.3.82,Keyboard,1,Keyboard,18{ENTER},5657,Keyboard,05092001{ENTER},7008,Diploma/GED,Button,12,Button,Yes,Button,Caucasian ,Button,Female,Button,Right hand,Button,Phase1,Proc1,Superblock,1,1,1,Keyboard,,,,,,,,
Demo_Q_YAs,159,Younger,4,"<?xml version=""1.0""?>\n<Clock xmlns:dt=""urn:schemas-microsoft-com:datatypes""><Description dt:dt=""string"">E-Prime Primary Realtime Clock</Description><StartTime><Timestamp dt:dt=""int"">0</Timestamp><DateUtc dt:dt=""string"">2020-01-24T16:25:35Z</DateUtc></StartTime><FrequencyChanges><FrequencyChange><Frequency dt:dt=""r8"">10000000</Frequency><Timestamp dt:dt=""r8"">5826176104894</Timestamp><Current dt:dt=""r8"">0</Current><DateUtc dt:dt=""string"">2020-01-24T16:25:35Z</DateUtc></FrequencyChange></FrequencyChanges></Clock>\n",Demo_Q_YAs-159-4,75.007,1.0.0.66,1,-2091948415,1,Full,3.0.3.80,3.0.3.80,24/01/2020,24/01/2020 16:25,11:25:35,3.0.3.82,Keyboard,1,Keyboard,18{ENTER},2502,Keyboard,04252001{LEFTARROW}{LEFTARROW}{ENTER},11191,Diploma/GED,Button,12,Button,Yes,Button,Caucasian ,Button,Female,Button,Right hand,Button,Phase1,Proc1,Superblock,1,1,1,Keyboard,,,,,,,,
Demo_Q_YAs,160,Younger,5,"<?xml version=""1.0""?>\n<Clock xmlns:dt=""urn:schemas-microsoft-com:datatypes""><Description dt:dt=""string"">E-Prime Primary Realtime Clock</Description><StartTime><Timestamp dt:dt=""int"">0</Timestamp><DateUtc dt:dt=""string"">2020-01-30T21:11:28Z</DateUtc></StartTime><FrequencyChanges><FrequencyChange><Frequency dt:dt=""r8"">10000000</Frequency><Timestamp dt:dt=""r8"">11181408621870</Timestamp><Current dt:dt=""r8"">0</Current><DateUtc dt:dt=""string"">2020-01-30T21:11:28Z</DateUtc></FrequencyChange></FrequencyChanges></Clock>\n",Demo_Q_YAs-160-5,75.012,1.0.0.66,1,1611306457,1,Full,3.0.3.80,3.0.3.80,30/01/2020,30/01/2020 21:11,16:11:28,3.0.3.82,Keyboard,1,Keyboard,20{ENTER},2073,Keyboard,03{/}09{/}1999{ENTER},11594,Diploma/GED,Button,13,Button,Yes,Button,African American,Button,Male,Button,Right hand,Button,Phase1,Proc1,Superblock,1,1,1,Keyboard,,,,,,,,
Demo_Q_YAs,161,Younger,1,"<?xml version=""1.0""?>\n<Clock xmlns:dt=""urn:schemas-microsoft-com:datatypes""><Description dt:dt=""string"">E-Prime Primary Realtime Clock</Description><StartTime><Timestamp dt:dt=""int"">0</Timestamp><DateUtc dt:dt=""string"">2020-01-30T22:33:50Z</DateUtc></StartTime><FrequencyChanges><FrequencyChange><Frequency dt:dt=""r8"">10000000</Frequency><Timestamp dt:dt=""r8"">11230824589769</Timestamp><Current dt:dt=""r8"">0</Current><DateUtc dt:dt=""string"">2020-01-30T22:33:50Z</DateUtc></FrequencyChange></FrequencyChanges></Clock>\n",Demo_Q_YAs-161-1,75.008,1.0.0.66,1,-511927816,1,Full,3.0.3.80,3.0.3.80,30/01/2020,,17:33:50,3.0.3.82,Keyboard,1,Keyboard,21{ENTER},2581,Keyboard,07{/}17{/}1998{ENTER},9097,Diploma/GED,Button,16,Button,Yes,Button,Caucasian ,Button,Gender Diverse,Button,Left hand ,Button,Phase1,Proc1,Superblock,1,1,1,Keyboard,,,,,,,,
Demo_Q_YAs,162,Younger,2,"<?xml version=""1.0""?>\n<Clock xmlns:dt=""urn:schemas-microsoft-com:datatypes""><Description dt:dt=""string"">E-Prime Primary Realtime Clock</Description><StartTime><Timestamp dt:dt=""int"">0</Timestamp><DateUtc dt:dt=""string"">2020-01-31T16:20:17Z</DateUtc></StartTime><FrequencyChanges><FrequencyChange><Frequency dt:dt=""r8"">10000000</Frequency><Timestamp dt:dt=""r8"">11870956264271</Timestamp><Current dt:dt=""r8"">0</Current><DateUtc dt:dt=""string"">2020-01-31T16:20:17Z</DateUtc></FrequencyChange></FrequencyChanges></Clock>\n",Demo_Q_YAs-162-2,75.01,1.0.0.66,1,-330389937,1,Full,3.0.3.80,3.0.3.80,31/01/2020,31/01/2020 16:20,11:20:17,3.0.3.82,Keyboard,1,Keyboard,18{ENTER},2190,Keyboard,11{/}08{/}2001{ENTER},9293,Diploma/GED,Button,12,Button,Yes,Button,African American,Button,Female,Button,Right hand,Button,Phase1,Proc1,Superblock,1,1,1,Keyboard,,,,,,,,
Demo_Q_OAs,201,Older,1,"<?xml version=""1.0""?>\n<Clock xmlns:dt=""urn:schemas-microsoft-com:datatypes""><Description dt:dt=""string"">E-Prime Primary Realtime Clock</Description><StartTime><Timestamp dt:dt=""int"">0</Timestamp><DateUtc dt:dt=""string"">2019-10-29T17:03:01Z</DateUtc></StartTime><FrequencyChanges><FrequencyChange><Frequency dt:dt=""r8"">10000000</Frequency><Timestamp dt:dt=""r8"">1007074854617</Timestamp><Current dt:dt=""r8"">0</Current><DateUtc dt:dt=""string"">2019-10-29T17:03:01Z</DateUtc></FrequencyChange></FrequencyChanges></Clock>\n",Demo_Q_OAs-201-1,75.018,1.0.0.63,1,2055079657,1,Full,3.0.3.80,3.0.3.80,29/10/2019,29/10/2019 17:03,13:03:01,3.0.3.82,Keyboard,1,Keyboard,68{ENTER},4577,Keyboard,04141951{ENTER},16614,Masters,Button,18,Button,Yes,Button,Caucasian ,Button,Female,Button,Left hand ,Button,Phase1,Proc1,Superblock,1,1,1,Keyboard,good,Button,good,Button,very good ,Button,,Button
Demo_Q_OAs,202,Older,2,"<?xml version=""1.0""?>\n<Clock xmlns:dt=""urn:schemas-microsoft-com:datatypes""><Description dt:dt=""string"">E-Prime Primary Realtime Clock</Description><StartTime><Timestamp dt:dt=""int"">0</Timestamp><DateUtc dt:dt=""string"">2019-10-31T16:27:48Z</DateUtc></StartTime><FrequencyChanges><FrequencyChange><Frequency dt:dt=""r8"">10000000</Frequency><Timestamp dt:dt=""r8"">11047203430282</Timestamp><Current dt:dt=""r8"">0</Current><DateUtc dt:dt=""string"">2019-10-31T16:27:48Z</DateUtc></FrequencyChange></FrequencyChanges></Clock>\n",Demo_Q_OAs-202-2,75.008,1.0.0.63,1,550170542,1,Full,3.0.3.80,3.0.3.80,31/10/2019,31/10/2019 16:27,12:27:48,3.0.3.82,Keyboard,1,Keyboard,65{ENTER},4744,Keyboard,01{/}251954{SPACE}{ENTER},13405,Bachelors,Button,18,Button,Yes,Button,Caucasian ,Button,Female,Button,Right hand,Button,Phase1,Proc1,Superblock,1,1,1,Keyboard,fair,Button,very good,Button,good,Button,Depression,Button
Demo_Q_OAs,203,Older,3,"<?xml version=""1.0""?>\n<Clock xmlns:dt=""urn:schemas-microsoft-com:datatypes""><Description dt:dt=""string"">E-Prime Primary Realtime Clock</Description><StartTime><Timestamp dt:dt=""int"">0</Timestamp><DateUtc dt:dt=""string"">2019-11-04T15:10:31Z</DateUtc></StartTime><FrequencyChanges><FrequencyChange><Frequency dt:dt=""r8"">10000000</Frequency><Timestamp dt:dt=""r8"">14456693583511</Timestamp><Current dt:dt=""r8"">0</Current><DateUtc dt:dt=""string"">2019-11-04T15:10:31Z</DateUtc></FrequencyChange></FrequencyChanges></Clock>\n",Demo_Q_OAs-203-3,75.008,1.0.0.63,1,-163770271,1,Full,3.0.3.80,3.0.3.80,4/11/19,4/11/19 15:10,10:10:31,3.0.3.82,Keyboard,1,Keyboard,74{ENTER},5385,Keyboard,03{/}18{/}1945{ENTER},18391,Masters,Button,18,Button,Yes,Button,Caucasian ,Button,Female,Button,Right hand,Button,Phase1,Proc1,Superblock,1,1,1,Keyboard,good,Button,very good,Button,very good ,Button,,Button
Demo_Q_OAs,204,Older,4,"<?xml version=""1.0""?>\n<Clock xmlns:dt=""urn:schemas-microsoft-com:datatypes""><Description dt:dt=""string"">E-Prime Primary Realtime Clock</Description><StartTime><Timestamp dt:dt=""int"">0</Timestamp><DateUtc dt:dt=""string"">2019-11-06T14:04:54Z</DateUtc></StartTime><FrequencyChanges><FrequencyChange><Frequency dt:dt=""r8"">10000000</Frequency><Timestamp dt:dt=""r8"">16140273019255</Timestamp><Current dt:dt=""r8"">0</Current><DateUtc dt:dt=""string"">2019-11-06T14:04:54Z</DateUtc></FrequencyChange></FrequencyChanges></Clock>\n",Demo_Q_OAs-204-4,75.007,1.0.0.63,1,-211478688,1,Full,3.0.3.80,3.0.3.80,6/11/19,6/11/19 14:04,9:04:54,3.0.3.82,Keyboard,1,Keyboard,75{ENTER},6145,Keyboard,01231944{ENTER},16386,Masters,Button,18,Button,Yes,Button,Caucasian ,Button,Male,Button,Right hand,Button,Phase1,Proc1,Superblock,1,1,1,Keyboard,good,Button,good,Button,fair,Button,,Button
Demo_Q_OAs,205,Older,5,"<?xml version=""1.0""?>\n<Clock xmlns:dt=""urn:schemas-microsoft-com:datatypes""><Description dt:dt=""string"">E-Prime Primary Realtime Clock</Description><StartTime><Timestamp dt:dt=""int"">0</Timestamp><DateUtc dt:dt=""string"">2019-11-07T14:32:00Z</DateUtc></StartTime><FrequencyChanges><FrequencyChange><Frequency dt:dt=""r8"">10000000</Frequency><Timestamp dt:dt=""r8"">17020529900761</Timestamp><Current dt:dt=""r8"">0</Current><DateUtc dt:dt=""string"">2019-11-07T14:32:00Z</DateUtc></FrequencyChange></FrequencyChanges></Clock>\n",Demo_Q_OAs-205-5,75.019,1.0.0.63,1,-422801193,1,Full,3.0.3.80,3.0.3.80,7/11/19,7/11/19 14:32,9:32:00,3.0.3.82,Keyboard,1,Keyboard,74{ENTER},3022,Keyboard,07101945{ENTER},15997,Masters,Button,18,Button,Yes,Button,Caucasian ,Button,Male,Button,Right hand,Button,Phase1,Proc1,Superblock,1,1,1,Keyboard,fair,Button,good,Button,very good ,Button,,Button
Demo_Q_OAs,206,Older,1,"<?xml version=""1.0""?>\n<Clock xmlns:dt=""urn:schemas-microsoft-com:datatypes""><Description dt:dt=""string"">E-Prime Primary Realtime Clock</Description><StartTime><Timestamp dt:dt=""int"">0</Timestamp><DateUtc dt:dt=""string"">2019-11-07T17:10:43Z</DateUtc></StartTime><FrequencyChanges><FrequencyChange><Frequency dt:dt=""r8"">10000000</Frequency><Timestamp dt:dt=""r8"">17115764780385</Timestamp><Current dt:dt=""r8"">0</Current><DateUtc dt:dt=""string"">2019-11-07T17:10:43Z</DateUtc></FrequencyChange></FrequencyChanges></Clock>\n",Demo_Q_OAs-206-1,75.026,1.0.0.63,1,323118015,1,Full,3.0.3.80,3.0.3.80,7/11/19,7/11/19 17:10,12:10:44,3.0.3.82,Keyboard,1,Keyboard,72{ENTER},3218,Keyboard,03311947{SPACE}{ENTER},12215,Associates,Button,14,Button,Yes,Button,Caucasian ,Button,Male,Button,Right hand,Button,Phase1,Proc1,Superblock,1,1,1,Keyboard,good,Button,very good,Button,good,Button,,Button
Demo_Q_OAs,207,Older,2,"<?xml version=""1.0""?>\n<Clock xmlns:dt=""urn:schemas-microsoft-com:datatypes""><Description dt:dt=""string"">E-Prime Primary Realtime Clock</Description><StartTime><Timestamp dt:dt=""int"">0</Timestamp><DateUtc dt:dt=""string"">2019-11-11T13:54:39Z</DateUtc></StartTime><FrequencyChanges><FrequencyChange><Frequency dt:dt=""r8"">10000000</Frequency><Timestamp dt:dt=""r8"">2545267181494</Timestamp><Current dt:dt=""r8"">0</Current><DateUtc dt:dt=""string"">2019-11-11T13:54:39Z</DateUtc></FrequencyChange></FrequencyChanges></Clock>\n",Demo_Q_OAs-207-2,75.008,1.0.0.63,1,-1645515471,1,Full,3.0.3.80,3.0.3.80,11/11/19,11/11/19 13:54,8:54:39,3.0.3.82,Keyboard,1,Keyboard,67{ENTER},3808,Keyboard,07091952{ENTER},13134,Bachelors,Button,16,Button,Yes,Button,Caucasian ,Button,Male,Button,Right hand,Button,Phase1,Proc1,Superblock,1,1,1,Keyboard,fair,Button,very good,Button,good,Button,,Button
Demo_Q_OAs,208,Older,3,"<?xml version=""1.0""?>\n<Clock xmlns:dt=""urn:schemas-microsoft-com:datatypes""><Description dt:dt=""string"">E-Prime Primary Realtime Clock</Description><StartTime><Timestamp dt:dt=""int"">0</Timestamp><DateUtc dt:dt=""string"">2019-11-11T17:01:52Z</DateUtc></StartTime><FrequencyChanges><FrequencyChange><Frequency dt:dt=""r8"">10000000</Frequency><Timestamp dt:dt=""r8"">2657603554569</Timestamp><Current dt:dt=""r8"">0</Current><DateUtc dt:dt=""string"">2019-11-11T17:01:52Z</DateUtc></FrequencyChange></FrequencyChanges></Clock>\n",Demo_Q_OAs-208-3,75.009,1.0.0.63,1,-978630990,1,Full,3.0.3.80,3.0.3.80,11/11/19,11/11/19 17:01,12:01:53,3.0.3.82,Keyboard,1,Keyboard,66{ENTER},3254,Keyboard,12{/}31{/}1952{ENTER},10217,Associates,Button,14,Button,Yes,Button,Caucasian ,Button,Female,Button,Left hand ,Button,Phase1,Proc1,Superblock,1,1,1,Keyboard,good,Button,good,Button,good,Button,,Button
Demo_Q_OAs,209,Older,4,"<?xml version=""1.0""?>\n<Clock xmlns:dt=""urn:schemas-microsoft-com:datatypes""><Description dt:dt=""string"">E-Prime Primary Realtime Clock</Description><StartTime><Timestamp dt:dt=""int"">0</Timestamp><DateUtc dt:dt=""string"">2019-11-12T14:43:14Z</DateUtc></StartTime><FrequencyChanges><FrequencyChange><Frequency dt:dt=""r8"">10000000</Frequency><Timestamp dt:dt=""r8"">21347274210895</Timestamp><Current dt:dt=""r8"">0</Current><DateUtc dt:dt=""string"">2019-11-12T14:43:14Z</DateUtc></FrequencyChange></FrequencyChanges></Clock>\n",Demo_Q_OAs-209-4,75.023,1.0.0.63,1,1289727105,1,Full,3.0.3.80,3.0.3.80,12/11/19,12/11/19 14:43,9:43:15,3.0.3.82,Keyboard,1,Keyboard,65{ENTER},2091,Keyboard,04041954{ENTER},10209,Bachelors,Button,16,Button,Yes,Button,Caucasian ,Button,Male,Button,Right hand,Button,Phase1,Proc1,Superblock,1,1,1,Keyboard,good,Button,very good,Button,fair,Button,,Button
Demo_Q_OAs,210,Older,5,"<?xml version=""1.0""?>\n<Clock xmlns:dt=""urn:schemas-microsoft-com:datatypes""><Description dt:dt=""string"">E-Prime Primary Realtime Clock</Description><StartTime><Timestamp dt:dt=""int"">0</Timestamp><DateUtc dt:dt=""string"">2019-11-12T16:46:25Z</DateUtc></StartTime><FrequencyChanges><FrequencyChange><Frequency dt:dt=""r8"">10000000</Frequency><Timestamp dt:dt=""r8"">21390038898382</Timestamp><Current dt:dt=""r8"">0</Current><DateUtc dt:dt=""string"">2019-11-12T16:46:25Z</DateUtc></FrequencyChange></FrequencyChanges></Clock>\n",Demo_Q_OAs-210-5,75.031,1.0.0.63,1,1104389401,1,Full,3.0.3.80,3.0.3.80,12/11/19,12/11/19 16:46,11:46:25,3.0.3.82,Keyboard,1,Keyboard,66{ENTER},4210,Keyboard,01221953{ENTER},6356,Diploma/GED,Button,14,Button,Yes,Button,Caucasian ,Button,Female,Button,Right hand,Button,Phase1,Proc1,Superblock,1,1,1,Keyboard,fair,Button,good,Button,good,Button,Depression,Button
Demo_Q_OAs,211,Older,1,"<?xml version=""1.0""?>\n<Clock xmlns:dt=""urn:schemas-microsoft-com:datatypes""><Description dt:dt=""string"">E-Prime Primary Realtime Clock</Description><StartTime><Timestamp dt:dt=""int"">0</Timestamp><DateUtc dt:dt=""string"">2019-11-12T18:32:41Z</DateUtc></StartTime><FrequencyChanges><FrequencyChange><Frequency dt:dt=""r8"">10000000</Frequency><Timestamp dt:dt=""r8"">21489977020631</Timestamp><Current dt:dt=""r8"">0</Current><DateUtc dt:dt=""string"">2019-11-12T18:32:41Z</DateUtc></FrequencyChange></FrequencyChanges></Clock>\n",Demo_Q_OAs-211-1,75.007,1.0.0.63,1,-2036430802,1,Full,3.0.3.80,3.0.3.80,12/11/19,12/11/19 18:32,13:32:41,3.0.3.82,Keyboard,1,Keyboard,65{ENTER},4060,Keyboard,08041954{ENTER},11889,Bachelors,Button,16,Button,Yes,Button,Caucasian ,Button,Male,Button,Right hand,Button,Phase1,Proc1,Superblock,1,1,1,Keyboard,very good ,Button,good,Button,fair,Button,,Button
Demo_Q_OAs,212,Older,2,"<?xml version=""1.0""?>\n<Clock xmlns:dt=""urn:schemas-microsoft-com:datatypes""><Description dt:dt=""string"">E-Prime Primary Realtime Clock</Description><StartTime><Timestamp dt:dt=""int"">0</Timestamp><DateUtc dt:dt=""string"">2019-11-14T15:39:14Z</DateUtc></StartTime><FrequencyChanges><FrequencyChange><Frequency dt:dt=""r8"">10000000</Frequency><Timestamp dt:dt=""r8"">14780792261613</Timestamp><Current dt:dt=""r8"">0</Current><DateUtc dt:dt=""string"">2019-11-14T15:39:14Z</DateUtc></FrequencyChange></FrequencyChanges></Clock>\n",Demo_Q_OAs-212-2,75.02,1.0.0.63,1,1812463576,1,Full,3.0.3.80,3.0.3.80,14/11/2019,14/11/2019 15:39,10:39:15,3.0.3.82,Keyboard,1,Keyboard,65{ENTER},5703,Keyboard,12081953{ENTER},18522,Bachelors,Button,16,Button,Yes,Button,African American,Button,Female,Button,Left hand ,Button,Phase1,Proc1,Superblock,1,1,1,Keyboard,good,Button,good,Button,good,Button,,Button
Demo_Q_OAs,213,Older,3,"<?xml version=""1.0""?>\n<Clock xmlns:dt=""urn:schemas-microsoft-com:datatypes""><Description dt:dt=""string"">E-Prime Primary Realtime Clock</Description><StartTime><Timestamp dt:dt=""int"">0</Timestamp><DateUtc dt:dt=""string"">2019-11-14T15:54:11Z</DateUtc></StartTime><FrequencyChanges><FrequencyChange><Frequency dt:dt=""r8"">10000000</Frequency><Timestamp dt:dt=""r8"">23117837626873</Timestamp><Current dt:dt=""r8"">0</Current><DateUtc dt:dt=""string"">2019-11-14T15:54:11Z</DateUtc></FrequencyChange></FrequencyChanges></Clock>\n",Demo_Q_OAs-213-3,75.012,1.0.0.63,1,-1968200819,1,Full,3.0.3.80,3.0.3.80,14/11/2019,14/11/2019 15:54,10:54:11,3.0.3.82,Keyboard,1,Keyboard,72{ENTER},4928,Keyboard,05291947{ENTER},18158,Masters,Button,19,Button,Yes,Button,Caucasian ,Button,Female,Button,Right hand,Button,Phase1,Proc1,Superblock,1,1,1,Keyboard,good,Button,good,Button,good,Button,,Button
Demo_Q_OAs,214,Older,4,"<?xml version=""1.0""?>\n<Clock xmlns:dt=""urn:schemas-microsoft-com:datatypes""><Description dt:dt=""string"">E-Prime Primary Realtime Clock</Description><StartTime><Timestamp dt:dt=""int"">0</Timestamp><DateUtc dt:dt=""string"">2019-11-18T16:08:24Z</DateUtc></StartTime><FrequencyChanges><FrequencyChange><Frequency dt:dt=""r8"">10000000</Frequency><Timestamp dt:dt=""r8"">26587402132632</Timestamp><Current dt:dt=""r8"">0</Current><DateUtc dt:dt=""string"">2019-11-18T16:08:24Z</DateUtc></FrequencyChange></FrequencyChanges></Clock>\n",Demo_Q_OAs-214-4,75.019,1.0.0.63,1,1557257766,1,Full,3.0.3.80,3.0.3.80,18/11/2019,18/11/2019 16:08,11:08:24,3.0.3.82,Keyboard,1,Keyboard,71{ENTER},3901,Keyboard,9{SPACE}27{SPACE}1948{ENTER},23193,Diploma/GED,Button,16,Button,Yes,Button,Caucasian ,Button,Female,Button,Right hand,Button,Phase1,Proc1,Superblock,1,1,1,Keyboard,very good ,Button,good,Button,very good ,Button,,Button
Demo_Q_OAs,215,Older,5,"<?xml version=""1.0""?>\n<Clock xmlns:dt=""urn:schemas-microsoft-com:datatypes""><Description dt:dt=""string"">E-Prime Primary Realtime Clock</Description><StartTime><Timestamp dt:dt=""int"">0</Timestamp><DateUtc dt:dt=""string"">2019-11-26T17:35:48Z</DateUtc></StartTime><FrequencyChanges><FrequencyChange><Frequency dt:dt=""r8"">10000000</Frequency><Timestamp dt:dt=""r8"">3272203107555</Timestamp><Current dt:dt=""r8"">0</Current><DateUtc dt:dt=""string"">2019-11-26T17:35:48Z</DateUtc></FrequencyChange></FrequencyChanges></Clock>\n",Demo_Q_OAs-215-5,75.029,1.0.0.63,1,-557774486,1,Full,3.0.3.80,3.0.3.80,26/11/2019,26/11/2019 17:35,12:35:48,3.0.3.82,Keyboard,1,Keyboard,68{ENTER},10274,Keyboard,07111951{ENTER},23452,Diploma/GED,Button,13,Button,Yes,Button,Hispanic or Latino,Button,Female,Button,Right hand,Button,Phase1,Proc1,Superblock,1,1,1,Keyboard,fair,Button,good,Button,good,Button,,Button
Demo_Q_OAs,216,Older,1,"<?xml version=""1.0""?>\n<Clock xmlns:dt=""urn:schemas-microsoft-com:datatypes""><Description dt:dt=""string"">E-Prime Primary Realtime Clock</Description><StartTime><Timestamp dt:dt=""int"">0</Timestamp><DateUtc dt:dt=""string"">2019-12-03T14:32:54Z</DateUtc></StartTime><FrequencyChanges><FrequencyChange><Frequency dt:dt=""r8"">10000000</Frequency><Timestamp dt:dt=""r8"">9210549985393</Timestamp><Current dt:dt=""r8"">0</Current><DateUtc dt:dt=""string"">2019-12-03T14:32:54Z</DateUtc></FrequencyChange></FrequencyChanges></Clock>\n",Demo_Q_OAs-216-1,75.028,1.0.0.63,1,2143073853,1,Full,3.0.3.80,3.0.3.80,3/12/19,3/12/19 14:32,9:32:54,3.0.3.82,Keyboard,1,Keyboard,66{ENTER},2801,Keyboard,09{/}26{/}1953{ENTER},10642,Doctorate/PhD,Button,19,Button,Yes,Button,Caucasian |African American,Button,Male,Button,Right hand,Button,Phase1,Proc1,Superblock,1,1,1,Keyboard,fair,Button,fair,Button,good,Button,,Button
Demo_Q_OAs,217,Older,2,"<?xml version=""1.0""?>\n<Clock xmlns:dt=""urn:schemas-microsoft-com:datatypes""><Description dt:dt=""string"">E-Prime Primary Realtime Clock</Description><StartTime><Timestamp dt:dt=""int"">0</Timestamp><DateUtc dt:dt=""string"">2019-12-10T18:00:02Z</DateUtc></StartTime><FrequencyChanges><FrequencyChange><Frequency dt:dt=""r8"">10000000</Frequency><Timestamp dt:dt=""r8"">15382919207252</Timestamp><Current dt:dt=""r8"">0</Current><DateUtc dt:dt=""string"">2019-12-10T18:00:02Z</DateUtc></FrequencyChange></FrequencyChanges></Clock>\n",Demo_Q_OAs-217-2,75.025,1.0.0.63,1,-1650661913,1,Full,3.0.3.80,3.0.3.80,10/12/19,10/12/19 18:00,13:00:02,3.0.3.82,Keyboard,1,Keyboard,65{ENTER},2221,Keyboard,02131954{ENTER},4894,Masters,Button,19,Button,Yes,Button,Caucasian ,Button,Female,Button,Right hand,Button,Phase1,Proc1,Superblock,1,1,1,Keyboard,very good ,Button,very good,Button,good,Button,,Button
Demo_Q_OAs,218,Older,3,"<?xml version=""1.0""?>\n<Clock xmlns:dt=""urn:schemas-microsoft-com:datatypes""><Description dt:dt=""string"">E-Prime Primary Realtime Clock</Description><StartTime><Timestamp dt:dt=""int"">0</Timestamp><DateUtc dt:dt=""string"">2019-12-03T18:12:30Z</DateUtc></StartTime><FrequencyChanges><FrequencyChange><Frequency dt:dt=""r8"">10000000</Frequency><Timestamp dt:dt=""r8"">9341851329201</Timestamp><Current dt:dt=""r8"">0</Current><DateUtc dt:dt=""string"">2019-12-03T18:12:30Z</DateUtc></FrequencyChange></FrequencyChanges></Clock>\n",Demo_Q_OAs-218-3,75.027,1.0.0.63,1,300456738,1,Full,3.0.3.80,3.0.3.80,3/12/19,3/12/19 18:12,13:12:30,3.0.3.82,Keyboard,1,Keyboard,81{ENTER},8523,Keyboard,01{/}26{/}1938{ENTER},38972,Bachelors,Button,16,Button,Yes,Button,Caucasian ,Button,Male,Button,Right hand,Button,Phase1,Proc1,Superblock,1,1,1,Keyboard,good,Button,very good,Button,fair,Button,,Button
Demo_Q_OAs,219,Older,4,"<?xml version=""1.0""?>\n<Clock xmlns:dt=""urn:schemas-microsoft-com:datatypes""><Description dt:dt=""string"">E-Prime Primary Realtime Clock</Description><StartTime><Timestamp dt:dt=""int"">0</Timestamp><DateUtc dt:dt=""string"">2020-01-20T16:39:30Z</DateUtc></StartTime><FrequencyChanges><FrequencyChange><Frequency dt:dt=""r8"">10000000</Frequency><Timestamp dt:dt=""r8"">2378818140464</Timestamp><Current dt:dt=""r8"">0</Current><DateUtc dt:dt=""string"">2020-01-20T16:39:30Z</DateUtc></FrequencyChange></FrequencyChanges></Clock>\n",Demo_Q_OAs-219-4,75.031,1.0.0.63,1,-590764657,1,Full,3.0.3.80,3.0.3.80,20/01/2020,20/01/2020 16:39,11:39:30,3.0.3.82,Keyboard,1,Keyboard,66{ENTER},2373,Keyboard,05{/}13{/}1953{ENTER},15082,Doctorate/PhD,Button,19,Button,Yes,Button,Caucasian ,Button,Female,Button,Right hand,Button,Phase1,Proc1,Superblock,1,1,1,Keyboard,very good ,Button,very good,Button,very good ,Button,,Button
Demo_Q_OAs,220,Older,5,"<?xml version=""1.0""?>\n<Clock xmlns:dt=""urn:schemas-microsoft-com:datatypes""><Description dt:dt=""string"">E-Prime Primary Realtime Clock</Description><StartTime><Timestamp dt:dt=""int"">0</Timestamp><DateUtc dt:dt=""string"">2020-01-22T17:15:50Z</DateUtc></StartTime><FrequencyChanges><FrequencyChange><Frequency dt:dt=""r8"">10000000</Frequency><Timestamp dt:dt=""r8"">4128059353055</Timestamp><Current dt:dt=""r8"">0</Current><DateUtc dt:dt=""string"">2020-01-22T17:15:50Z</DateUtc></FrequencyChange></FrequencyChanges></Clock>\n",Demo_Q_OAs-220-5,75.024,1.0.0.63,1,598764398,1,Full,3.0.3.80,3.0.3.80,22/01/2020,22/01/2020 17:15,12:15:50,3.0.3.82,Keyboard,1,Keyboard,77{ENTER},3526,Keyboard,12{/}08{/}1942{ENTER},8938,Bachelors,Button,16,Button,Yes,Button,Caucasian ,Button,Female,Button,Right hand,Button,Phase1,Proc1,Superblock,1,1,1,Keyboard,good,Button,good,Button,very good ,Button,,Button
Demo_Q_OAs,221,Older,1,"<?xml version=""1.0""?>\n<Clock xmlns:dt=""urn:schemas-microsoft-com:datatypes""><Description dt:dt=""string"">E-Prime Primary Realtime Clock</Description><StartTime><Timestamp dt:dt=""int"">0</Timestamp><DateUtc dt:dt=""string"">2020-01-24T17:07:38Z</DateUtc></StartTime><FrequencyChanges><FrequencyChange><Frequency dt:dt=""r8"">10000000</Frequency><Timestamp dt:dt=""r8"">5851132631112</Timestamp><Current dt:dt=""r8"">0</Current><DateUtc dt:dt=""string"">2020-01-24T17:07:38Z</DateUtc></FrequencyChange></FrequencyChanges></Clock>\n",Demo_Q_OAs-221-1,75.012,1.0.0.63,1,1389782810,1,Full,3.0.3.80,3.0.3.80,24/01/2020,24/01/2020 17:07,12:07:38,3.0.3.82,Keyboard,1,Keyboard,79{.}33{ENTER},10778,Keyboard,09{/}05{/}1940{ENTER},37598,Doctorate/PhD,Button,19,Button,Yes,Button,African American,Button,Male,Button,Right hand,Button,Phase1,Proc1,Superblock,1,1,1,Keyboard,fair,Button,fair,Button,fair,Button,,Button
Demo_Q_OAs,222,Older,2,"<?xml version=""1.0""?>\n<Clock xmlns:dt=""urn:schemas-microsoft-com:datatypes""><Description dt:dt=""string"">E-Prime Primary Realtime Clock</Description><StartTime><Timestamp dt:dt=""int"">0</Timestamp><DateUtc dt:dt=""string"">2020-01-27T17:15:17Z</DateUtc></StartTime><FrequencyChanges><FrequencyChange><Frequency dt:dt=""r8"">10000000</Frequency><Timestamp dt:dt=""r8"">8447714431107</Timestamp><Current dt:dt=""r8"">0</Current><DateUtc dt:dt=""string"">2020-01-27T17:15:17Z</DateUtc></FrequencyChange></FrequencyChanges></Clock>\n",Demo_Q_OAs-222-2,75.013,1.0.0.63,1,-483617177,1,Full,3.0.3.80,3.0.3.80,27/01/2020,27/01/2020 17:15,12:15:18,3.0.3.82,Keyboard,1,Keyboard,84{ENTER},5048,Keyboard,01221936{ENTER},22362,Bachelors,Button,16,Button,Yes,Button,Caucasian ,Button,Male,Button,Right hand,Button,Phase1,Proc1,Superblock,1,1,1,Keyboard,good,Button,good,Button,good,Button,,Button
Demo_Q_OAs,223,Older,3,"<?xml version=""1.0""?>\n<Clock xmlns:dt=""urn:schemas-microsoft-com:datatypes""><Description dt:dt=""string"">E-Prime Primary Realtime Clock</Description><StartTime><Timestamp dt:dt=""int"">0</Timestamp><DateUtc dt:dt=""string"">2020-01-30T19:17:03Z</DateUtc></StartTime><FrequencyChanges><FrequencyChange><Frequency dt:dt=""r8"">10000000</Frequency><Timestamp dt:dt=""r8"">11112763870455</Timestamp><Current dt:dt=""r8"">0</Current><DateUtc dt:dt=""string"">2020-01-30T19:17:03Z</DateUtc></FrequencyChange></FrequencyChanges></Clock>\n",Demo_Q_OAs-223-3,75.015,1.0.0.63,1,1686045172,1,Full,3.0.3.80,3.0.3.80,30/01/2020,30/01/2020 19:17,14:17:04,3.0.3.82,Keyboard,1,Keyboard,78{ENTER},2797,Keyboard,01{/}01{/}1942{ENTER},59646,Bachelors,Button,16,Button,Yes,Button,Caucasian ,Button,Female,Button,Right hand,Button,Phase1,Proc1,Superblock,1,1,1,Keyboard,good,Button,good,Button,good,Button,,Button
Demo_Q_OAs,224,Older,4,"<?xml version=""1.0""?>\n<Clock xmlns:dt=""urn:schemas-microsoft-com:datatypes""><Description dt:dt=""string"">E-Prime Primary Realtime Clock</Description><StartTime><Timestamp dt:dt=""int"">0</Timestamp><DateUtc dt:dt=""string"">2020-02-05T17:12:18Z</DateUtc></StartTime><FrequencyChanges><FrequencyChange><Frequency dt:dt=""r8"">10000000</Frequency><Timestamp dt:dt=""r8"">16221894679172</Timestamp><Current dt:dt=""r8"">0</Current><DateUtc dt:dt=""string"">2020-02-05T17:12:18Z</DateUtc></FrequencyChange></FrequencyChanges></Clock>\n",Demo_Q_OAs-224-4,75.028,1.0.0.63,1,-194148744,1,Full,3.0.3.80,3.0.3.80,5/2/20,5/2/20 17:12,12:12:19,3.0.3.82,Keyboard,1,Keyboard,77{ENTER},7361,Keyboard,10{/}05{/}1942{ENTER},21437,Masters,Button,19,Button,Yes,Button,Caucasian ,Button,Male,Button,Right hand,Button,Phase1,Proc1,Superblock,1,1,1,Keyboard,good,Button,good,Button,good,Button,,Button
Demo_Q_OAs,225,Older,5,"<?xml version=""1.0""?>\n<Clock xmlns:dt=""urn:schemas-microsoft-com:datatypes""><Description dt:dt=""string"">E-Prime Primary Realtime Clock</Description><StartTime><Timestamp dt:dt=""int"">0</Timestamp><DateUtc dt:dt=""string"">2020-02-10T17:07:40Z</DateUtc></StartTime><FrequencyChanges><FrequencyChange><Frequency dt:dt=""r8"">10000000</Frequency><Timestamp dt:dt=""r8"">4255546075719</Timestamp><Current dt:dt=""r8"">0</Current><DateUtc dt:dt=""string"">2020-02-10T17:07:40Z</DateUtc></FrequencyChange></FrequencyChanges></Clock>\n",Demo_Q_OAs-225-5,75.012,1.0.0.63,1,-763943844,1,Full,3.0.3.80,3.0.3.80,10/2/20,10/2/20 17:07,12:07:40,3.0.3.82,Keyboard,1,Keyboard,84{ENTER},4079,Keyboard,07091935{ENTER},12253,Masters,Button,18,Button,Yes,Button,Caucasian ,Button,Female,Button,Right hand,Button,Phase1,Proc1,Superblock,1,1,1,Keyboard,good,Button,very good,Button,very good ,Button,,Button
Demo_Q_OAs,226,Older,1,"<?xml version=""1.0""?>\n<Clock xmlns:dt=""urn:schemas-microsoft-com:datatypes""><Description dt:dt=""string"">E-Prime Primary Realtime Clock</Description><StartTime><Timestamp dt:dt=""int"">0</Timestamp><DateUtc dt:dt=""string"">2020-02-12T17:14:43Z</DateUtc></StartTime><FrequencyChanges><FrequencyChange><Frequency dt:dt=""r8"">10000000</Frequency><Timestamp dt:dt=""r8"">22271318533659</Timestamp><Current dt:dt=""r8"">0</Current><DateUtc dt:dt=""string"">2020-02-12T17:14:43Z</DateUtc></FrequencyChange></FrequencyChanges></Clock>\n",Demo_Q_OAs-226-1,75.024,1.0.0.63,1,1915769618,1,Full,3.0.3.80,3.0.3.80,12/2/20,12/2/20 17:14,12:14:44,3.0.3.82,Keyboard,1,Keyboard,71{ENTER},3824,Keyboard,0{SHIFT}1{/}11{/}1949{ENTER},29634,Masters,Button,16,Button,No,Button,Caucasian ,Button,Male,Button,Right hand,Button,Phase1,Proc1,Superblock,1,1,1,Keyboard,good,Button,good,Button,fair,Button,,Button
Demo_Q_OAs,227,Older,2,"<?xml version=""1.0""?>\n<Clock xmlns:dt=""urn:schemas-microsoft-com:datatypes""><Description dt:dt=""string"">E-Prime Primary Realtime Clock</Description><StartTime><Timestamp dt:dt=""int"">0</Timestamp><DateUtc dt:dt=""string"">2020-02-17T16:02:42Z</DateUtc></StartTime><FrequencyChanges><FrequencyChange><Frequency dt:dt=""r8"">10000000</Frequency><Timestamp dt:dt=""r8"">26548091594066</Timestamp><Current dt:dt=""r8"">0</Current><DateUtc dt:dt=""string"">2020-02-17T16:02:42Z</DateUtc></FrequencyChange></FrequencyChanges></Clock>\n",Demo_Q_OAs-227-2,75.014,1.0.0.63,1,901305803,1,Full,3.0.3.80,3.0.3.80,17/02/2020,17/02/2020 16:02,11:02:42,3.0.3.82,Keyboard,1,Keyboard,76{ENTER},8139,Keyboard,07301943{ENTER},38652,Diploma/GED,Button,12,Button,Yes,Button,African American,Button,Female,Button,Right hand,Button,Phase1,Proc1,Superblock,1,1,1,Keyboard,good,Button,good,Button,good,Button,,Button
Demo_Q_OAs,228,Older,3,"<?xml version=""1.0""?>\n<Clock xmlns:dt=""urn:schemas-microsoft-com:datatypes""><Description dt:dt=""string"">E-Prime Primary Realtime Clock</Description><StartTime><Timestamp dt:dt=""int"">0</Timestamp><DateUtc dt:dt=""string"">2020-02-17T17:13:58Z</DateUtc></StartTime><FrequencyChanges><FrequencyChange><Frequency dt:dt=""r8"">10000000</Frequency><Timestamp dt:dt=""r8"">10307297398954</Timestamp><Current dt:dt=""r8"">0</Current><DateUtc dt:dt=""string"">2020-02-17T17:13:58Z</DateUtc></FrequencyChange></FrequencyChanges></Clock>\n",Demo_Q_OAs-228-3,75.007,1.0.0.63,1,-621521689,1,Full,3.0.3.80,3.0.3.80,17/02/2020,17/02/2020 17:13,12:13:59,3.0.3.82,Keyboard,1,Keyboard,66{ENTER},3402,Keyboard,03{/}22{/}1953{ENTER},16792,Diploma/GED,Button,13,Button,Yes,Button,Caucasian ,Button,Male,Button,Right hand,Button,Phase1,Proc1,Superblock,1,1,1,Keyboard,good,Button,good,Button,good,Button,,Button
Demo_Q_OAs,229,Older,4,"<?xml version=""1.0""?>\n<Clock xmlns:dt=""urn:schemas-microsoft-com:datatypes""><Description dt:dt=""string"">E-Prime Primary Realtime Clock</Description><StartTime><Timestamp dt:dt=""int"">0</Timestamp><DateUtc dt:dt=""string"">2020-02-19T17:08:24Z</DateUtc></StartTime><FrequencyChanges><FrequencyChange><Frequency dt:dt=""r8"">10000000</Frequency><Timestamp dt:dt=""r8"">28315845460035</Timestamp><Current dt:dt=""r8"">0</Current><DateUtc dt:dt=""string"">2020-02-19T17:08:24Z</DateUtc></FrequencyChange></FrequencyChanges></Clock>\n",Demo_Q_OAs-229-4,75.025,1.0.0.63,1,-870118073,1,Full,3.0.3.80,3.0.3.80,19/02/2020,19/02/2020 17:08,12:08:25,3.0.3.82,Keyboard,1,Keyboard,73{ENTER},2742,Keyboard,12021946{ENTER},8539,Bachelors,Button,16,Button,Yes,Button,Caucasian ,Button,Female,Button,Right hand,Button,Phase1,Proc1,Superblock,1,1,1,Keyboard,good,Button,good,Button,good,Button,,Button
Demo_Q_OAs,230,Older,5,"<?xml version=""1.0""?>\n<Clock xmlns:dt=""urn:schemas-microsoft-com:datatypes""><Description dt:dt=""string"">E-Prime Primary Realtime Clock</Description><StartTime><Timestamp dt:dt=""int"">0</Timestamp><DateUtc dt:dt=""string"">2020-02-24T13:11:10Z</DateUtc></StartTime><FrequencyChanges><FrequencyChange><Frequency dt:dt=""r8"">10000000</Frequency><Timestamp dt:dt=""r8"">2664428312</Timestamp><Current dt:dt=""r8"">0</Current><DateUtc dt:dt=""string"">2020-02-24T13:11:10Z</DateUtc></FrequencyChange></FrequencyChanges></Clock>\n",Demo_Q_OAs-230-5,75.017,1.0.0.63,1,-1627971969,1,Full,3.0.3.80,3.0.3.80,24/02/2020,24/02/2020 13:11,8:11:10,3.0.3.82,Keyboard,1,Keyboard,66{ENTER},4897,Keyboard,05{/}06{/}1953{ENTER},13872,Bachelors,Button,18,Button,Yes,Button,Caucasian ,Button,Female,Button,Right hand,Button,Phase1,Proc1,Superblock,1,1,1,Keyboard,good,Button,very good,Button,very good ,Button,,Button
Demo_Q_OAs,231,Older,1,"<?xml version=""1.0""?>\n<Clock xmlns:dt=""urn:schemas-microsoft-com:datatypes""><Description dt:dt=""string"">E-Prime Primary Realtime Clock</Description><StartTime><Timestamp dt:dt=""int"">0</Timestamp><DateUtc dt:dt=""string"">2020-02-25T19:58:37Z</DateUtc></StartTime><FrequencyChanges><FrequencyChange><Frequency dt:dt=""r8"">10000000</Frequency><Timestamp dt:dt=""r8"">3361334203165</Timestamp><Current dt:dt=""r8"">0</Current><DateUtc dt:dt=""string"">2020-02-25T19:58:37Z</DateUtc></FrequencyChange></FrequencyChanges></Clock>\n",Demo_Q_OAs-231-1,75.031,1.0.0.63,1,-1622613546,1,Full,3.0.3.80,3.0.3.80,25/02/2020,25/02/2020 19:58,14:58:38,3.0.3.82,Keyboard,1,Keyboard,70{ENTER},2936,Keyboard,01{/}01{/}50{ENTER},6088,Bachelors,Button,16,Button,Yes,Button,Caucasian ,Button,Female,Button,Right hand,Button,Phase1,Proc1,Superblock,1,1,1,Keyboard,good,Button,good,Button,good,Button,,Button
Demo_Q_OAs,232,Older,2,"<?xml version=""1.0""?>\n<Clock xmlns:dt=""urn:schemas-microsoft-com:datatypes""><Description dt:dt=""string"">E-Prime Primary Realtime Clock</Description><StartTime><Timestamp dt:dt=""int"">0</Timestamp><DateUtc dt:dt=""string"">2020-02-26T17:19:56Z</DateUtc></StartTime><FrequencyChanges><FrequencyChange><Frequency dt:dt=""r8"">10000000</Frequency><Timestamp dt:dt=""r8"">4130122326839</Timestamp><Current dt:dt=""r8"">0</Current><DateUtc dt:dt=""string"">2020-02-26T17:19:56Z</DateUtc></FrequencyChange></FrequencyChanges></Clock>\n",Demo_Q_OAs-232-2,75.008,1.0.0.63,1,-1633524182,1,Full,3.0.3.80,3.0.3.80,26/02/2020,26/02/2020 17:19,12:19:57,3.0.3.82,Keyboard,1,Keyboard,65{ENTER},2738,Keyboard,11{/}14{/}1954{ENTER},6072,Masters,Button,18,Button,Yes,Button,Caucasian ,Button,Female,Button,Right hand,Button,Phase1,Proc1,Superblock,1,1,1,Keyboard,good,Button,very good,Button,good,Button,,Button
Demo_Q_OAs,233,Older,3,"<?xml version=""1.0""?>\n<Clock xmlns:dt=""urn:schemas-microsoft-com:datatypes""><Description dt:dt=""string"">E-Prime Primary Realtime Clock</Description><StartTime><Timestamp dt:dt=""int"">0</Timestamp><DateUtc dt:dt=""string"">2020-02-27T14:03:57Z</DateUtc></StartTime><FrequencyChanges><FrequencyChange><Frequency dt:dt=""r8"">10000000</Frequency><Timestamp dt:dt=""r8"">2602403982865</Timestamp><Current dt:dt=""r8"">0</Current><DateUtc dt:dt=""string"">2020-02-27T14:03:57Z</DateUtc></FrequencyChange></FrequencyChanges></Clock>\n",Demo_Q_OAs-233-3,75.003,1.0.0.63,1,-343481838,1,Full,3.0.3.80,3.0.3.80,27/02/2020,27/02/2020 14:03,9:03:57,3.0.3.82,Keyboard,1,Keyboard,71{ENTER},2817,Keyboard,07281948{ENTER},13774,Bachelors,Button,16,Button,Yes,Button,Caucasian ,Button,Female,Button,Right hand,Button,Phase1,Proc1,Superblock,1,1,1,Keyboard,fair,Button,good,Button,very good ,Button,,Button
Demo_Q_OAs,234,Older,4,"<?xml version=""1.0""?>\n<Clock xmlns:dt=""urn:schemas-microsoft-com:datatypes""><Description dt:dt=""string"">E-Prime Primary Realtime Clock</Description><StartTime><Timestamp dt:dt=""int"">0</Timestamp><DateUtc dt:dt=""string"">2020-03-11T16:09:27Z</DateUtc></StartTime><FrequencyChanges><FrequencyChange><Frequency dt:dt=""r8"">10000000</Frequency><Timestamp dt:dt=""r8"">12962085954245</Timestamp><Current dt:dt=""r8"">0</Current><DateUtc dt:dt=""string"">2020-03-11T16:09:27Z</DateUtc></FrequencyChange></FrequencyChanges></Clock>\n",Demo_Q_OAs-234-4,75.013,1.0.0.63,1,-122453291,1,Full,3.0.3.80,3.0.3.80,11/3/20,11/3/20 16:09,12:09:27,3.0.3.82,Keyboard,1,Keyboard,73{ENTER},3481,Keyboard,12{/}25{/}1946{ENTER},6876,Bachelors,Button,17,Button,Yes,Button,Caucasian ,Button,Female,Button,Right hand,Button,Phase1,Proc1,Superblock,1,1,1,Keyboard,good,Button,very good,Button,good,Button,,Button
Demo_Q_OAs,235,Older,5,"<?xml version=""1.0""?>\n<Clock xmlns:dt=""urn:schemas-microsoft-com:datatypes""><Description dt:dt=""string"">E-Prime Primary Realtime Clock</Description><StartTime><Timestamp dt:dt=""int"">0</Timestamp><DateUtc dt:dt=""string"">2020-03-11T16:41:26Z</DateUtc></StartTime><FrequencyChanges><FrequencyChange><Frequency dt:dt=""r8"">10000000</Frequency><Timestamp dt:dt=""r8"">16202979670759</Timestamp><Current dt:dt=""r8"">0</Current><DateUtc dt:dt=""string"">2020-03-11T16:41:26Z</DateUtc></FrequencyChange></FrequencyChanges></Clock>\n",Demo_Q_OAs-235-5,75.027,1.0.0.63,1,-1929320962,1,Full,3.0.3.80,3.0.3.80,11/3/20,11/3/20 16:41,12:41:26,3.0.3.82,Keyboard,1,Keyboard,67{ENTER},7655,Keyboard,01{/}09{/}1953{ENTER},22614,Masters,Button,18,Button,No,Button,Asian or Pacific Islander,Button,Male,Button,Right hand,Button,Phase1,Proc1,Superblock,1,1,1,Keyboard,good,Button,good,Button,good,Button,,Button
Demo_Q_OAs,236,Older,1,"<?xml version=""1.0""?>\n<Clock xmlns:dt=""urn:schemas-microsoft-com:datatypes""><Description dt:dt=""string"">E-Prime Primary Realtime Clock</Description><StartTime><Timestamp dt:dt=""int"">0</Timestamp><DateUtc dt:dt=""string"">2021-06-17T14:09:02Z</DateUtc></StartTime><FrequencyChanges><FrequencyChange><Frequency dt:dt=""r8"">10000000</Frequency><Timestamp dt:dt=""r8"">30082725175487</Timestamp><Current dt:dt=""r8"">0</Current><DateUtc dt:dt=""string"">2021-06-17T14:09:02Z</DateUtc></FrequencyChange></FrequencyChanges></Clock>\n",Demo_Q_OAs-236-1,60,1.0.0.63,1,776263985,1,Full,3.0.3.9,3.0.3.80,17/06/2021,17/06/2021 14:09,10:09:02,3.0.3.82,Keyboard,1,Keyboard,76{ENTER},4985,Keyboard,04{/}05{/}1945{ENTER},24969,Bachelors,Button,16,Button,Yes,Button,Caucasian ,Button,Female,Button,Right hand,Button,Phase1,Proc1,Superblock,1,1,1,Keyboard,good,Button,good,Button,good,Button,,Button
Demo_Q_OAs,237,Older,2,"<?xml version=""1.0""?>\n<Clock xmlns:dt=""urn:schemas-microsoft-com:datatypes""><Description dt:dt=""string"">E-Prime Primary Realtime Clock</Description><StartTime><Timestamp dt:dt=""int"">0</Timestamp><DateUtc dt:dt=""string"">2021-07-05T18:18:08Z</DateUtc></StartTime><FrequencyChanges><FrequencyChange><Frequency dt:dt=""r8"">10000000</Frequency><Timestamp dt:dt=""r8"">9585192010809</Timestamp><Current dt:dt=""r8"">0</Current><DateUtc dt:dt=""string"">2021-07-05T18:18:08Z</DateUtc></FrequencyChange></FrequencyChanges></Clock>\n",Demo_Q_OAs-237-2,60,1.0.0.63,1,-1172956743,1,Full,3.0.3.9,3.0.3.80,5/7/21,5/7/21 18:18,14:18:08,3.0.3.82,Keyboard,1,Keyboard,72{ENTER},4619,Keyboard,04{/}29{/}1{LEFTARROW}{LEFTARROW}{LEFTARROW}949{ENTER},33871,Associates,Button,14,Button,Yes,Button,Caucasian ,Button,Female,Button,Right hand,Button,Phase1,Proc1,Superblock,1,1,1,Keyboard,good,Button,good,Button,poor,Button,,Button
Demo_Q_OAs,238,Older,3,"<?xml version=""1.0""?>\n<Clock xmlns:dt=""urn:schemas-microsoft-com:datatypes""><Description dt:dt=""string"">E-Prime Primary Realtime Clock</Description><StartTime><Timestamp dt:dt=""int"">0</Timestamp><DateUtc dt:dt=""string"">2021-07-06T13:34:12Z</DateUtc></StartTime><FrequencyChanges><FrequencyChange><Frequency dt:dt=""r8"">10000000</Frequency><Timestamp dt:dt=""r8"">10278825697266</Timestamp><Current dt:dt=""r8"">0</Current><DateUtc dt:dt=""string"">2021-07-06T13:34:12Z</DateUtc></FrequencyChange></FrequencyChanges></Clock>\n",Demo_Q_OAs-238-3,60,1.0.0.63,1,971030304,1,Full,3.0.3.9,3.0.3.80,6/7/21,6/7/21 13:34,9:34:12,3.0.3.82,Keyboard,1,Keyboard,68{ENTER},4426,Keyboard,08{/}15{/}1952{ENTER},21170,Associates,Button,14,Button,Yes,Button,African American,Button,Female,Button,Right hand,Button,Phase1,Proc1,Superblock,1,1,1,Keyboard,fair,Button,fair,Button,good,Button,,Button
Demo_Q_OAs,239,Older,4,"<?xml version=""1.0""?>\n<Clock xmlns:dt=""urn:schemas-microsoft-com:datatypes""><Description dt:dt=""string"">E-Prime Primary Realtime Clock</Description><StartTime><Timestamp dt:dt=""int"">0</Timestamp><DateUtc dt:dt=""string"">2021-07-07T13:44:16Z</DateUtc></StartTime><FrequencyChanges><FrequencyChange><Frequency dt:dt=""r8"">10000000</Frequency><Timestamp dt:dt=""r8"">11148864126497</Timestamp><Current dt:dt=""r8"">0</Current><DateUtc dt:dt=""string"">2021-07-07T13:44:16Z</DateUtc></FrequencyChange></FrequencyChanges></Clock>\n",Demo_Q_OAs-239-4,60,1.0.0.63,1,-868920110,1,Full,3.0.3.9,3.0.3.80,7/7/21,7/7/21 13:44,9:44:16,3.0.3.82,Keyboard,1,Keyboard,65{ENTER},3800,Keyboard,0{LEFTARROW}{LEFTARROW}2131956{ENTER},21316,Associates,Button,14,Button,Yes,Button,African American,Button,Female,Button,Right hand,Button,Phase1,Proc1,Superblock,1,1,1,Keyboard,good,Button,good,Button,good,Button,,Button
Demo_Q_OAs,240,Older,5,"<?xml version=""1.0""?>\n<Clock xmlns:dt=""urn:schemas-microsoft-com:datatypes""><Description dt:dt=""string"">E-Prime Primary Realtime Clock</Description><StartTime><Timestamp dt:dt=""int"">0</Timestamp><DateUtc dt:dt=""string"">2021-07-08T13:46:47Z</DateUtc></StartTime><FrequencyChanges><FrequencyChange><Frequency dt:dt=""r8"">10000000</Frequency><Timestamp dt:dt=""r8"">12014367542776</Timestamp><Current dt:dt=""r8"">0</Current><DateUtc dt:dt=""string"">2021-07-08T13:46:47Z</DateUtc></FrequencyChange></FrequencyChanges></Clock>\n",Demo_Q_OAs-240-5,60.002,1.0.0.63,1,1346179071,1,Full,3.0.3.9,3.0.3.80,8/7/21,8/7/21 13:46,9:46:47,3.0.3.82,Keyboard,1,Keyboard,73{ENTER},3842,Keyboard,06{/}09{/}1948{ENTER},13978,Masters,Button,19,Button,Yes,Button,African American,Button,Female,Button,Right hand,Button,Phase1,Proc1,Superblock,1,1,1,Keyboard,good,Button,very good,Button,good,Button,,Button
Demo_Q_OAs,241,Older,1,"<?xml version=""1.0""?>\n<Clock xmlns:dt=""urn:schemas-microsoft-com:datatypes""><Description dt:dt=""string"">E-Prime Primary Realtime Clock</Description><StartTime><Timestamp dt:dt=""int"">0</Timestamp><DateUtc dt:dt=""string"">2021-07-10T16:01:10Z</DateUtc></StartTime><FrequencyChanges><FrequencyChange><Frequency dt:dt=""r8"">10000000</Frequency><Timestamp dt:dt=""r8"">13824512122442</Timestamp><Current dt:dt=""r8"">0</Current><DateUtc dt:dt=""string"">2021-07-10T16:01:10Z</DateUtc></FrequencyChange></FrequencyChanges></Clock>\n",Demo_Q_OAs-241-1,60,1.0.0.63,1,-985594181,1,Full,3.0.3.9,3.0.3.80,10/7/21,10/7/21 16:01,12:01:11,3.0.3.82,Keyboard,1,Keyboard,69{ENTER},2805,Keyboard,08201951{ENTER},8531,Masters,Button,18,Button,Yes,Button,Caucasian ,Button,Male,Button,Right hand,Button,Phase1,Proc1,Superblock,1,1,1,Keyboard,good,Button,very good,Button,very good ,Button,,Button
Demo_Q_OAs,242,Older,2,"<?xml version=""1.0""?>\n<Clock xmlns:dt=""urn:schemas-microsoft-com:datatypes""><Description dt:dt=""string"">E-Prime Primary Realtime Clock</Description><StartTime><Timestamp dt:dt=""int"">0</Timestamp><DateUtc dt:dt=""string"">2021-07-12T14:56:09Z</DateUtc></StartTime><FrequencyChanges><FrequencyChange><Frequency dt:dt=""r8"">10000000</Frequency><Timestamp dt:dt=""r8"">15513662347278</Timestamp><Current dt:dt=""r8"">0</Current><DateUtc dt:dt=""string"">2021-07-12T14:56:09Z</DateUtc></FrequencyChange></FrequencyChanges></Clock>\n",Demo_Q_OAs-242-2,60.003,1.0.0.63,1,242449933,1,Full,3.0.3.9,3.0.3.80,12/7/21,12/7/21 14:56,10:56:10,3.0.3.82,Keyboard,1,Keyboard,67{ENTER},10391,Keyboard,05131954{ENTER},10800,Bachelors,Button,16,Button,Yes,Button,Caucasian ,Button,Male,Button,Right hand,Button,Phase1,Proc1,Superblock,1,1,1,Keyboard,good,Button,very good,Button,good,Button,,Button
Demo_Q_OAs,243,Older,3,"<?xml version=""1.0""?>\n<Clock xmlns:dt=""urn:schemas-microsoft-com:datatypes""><Description dt:dt=""string"">E-Prime Primary Realtime Clock</Description><StartTime><Timestamp dt:dt=""int"">0</Timestamp><DateUtc dt:dt=""string"">2021-07-13T15:05:39Z</DateUtc></StartTime><FrequencyChanges><FrequencyChange><Frequency dt:dt=""r8"">10000000</Frequency><Timestamp dt:dt=""r8"">825091526452</Timestamp><Current dt:dt=""r8"">0</Current><DateUtc dt:dt=""string"">2021-07-13T15:05:39Z</DateUtc></FrequencyChange></FrequencyChanges></Clock>\n",Demo_Q_OAs-242-3,60.001,1.0.0.63,1,459797506,1,Full,3.0.3.9,3.0.3.80,13/07/2021,13/07/2021 15:05,11:05:39,3.0.3.82,Keyboard,1,Keyboard,73{ENTER},5709,Keyboard,121846{ENTER},12756,Bachelors,Button,16,Button,Yes,Button,Caucasian ,Button,Male,Button,Right hand,Button,Phase1,Proc1,Superblock,1,1,1,Keyboard,very good ,Button,very good,Button,good,Button,,Button
Demo_Q_OAs,244,Older,4,"<?xml version=""1.0""?>\n<Clock xmlns:dt=""urn:schemas-microsoft-com:datatypes""><Description dt:dt=""string"">E-Prime Primary Realtime Clock</Description><StartTime><Timestamp dt:dt=""int"">0</Timestamp><DateUtc dt:dt=""string"">2021-07-15T12:53:01Z</DateUtc></StartTime><FrequencyChanges><FrequencyChange><Frequency dt:dt=""r8"">10000000</Frequency><Timestamp dt:dt=""r8"">2474271890939</Timestamp><Current dt:dt=""r8"">0</Current><DateUtc dt:dt=""string"">2021-07-15T12:53:01Z</DateUtc></FrequencyChange></FrequencyChanges></Clock>\n",Demo_Q_OAs-242-4,60,1.0.0.63,1,372788716,1,Full,3.0.3.9,3.0.3.80,15/07/2021,,8:53:01,3.0.3.82,Keyboard,1,Keyboard,81{ENTER},4145,Keyboard,06111940{ENTER},10161,Bachelors,Button,18,Button,Yes,Button,Caucasian ,Button,Female,Button,Right hand,Button,Phase1,Proc1,Superblock,1,1,1,Keyboard,good,Button,very good,Button,fair,Button,,Button
Demo_Q_OAs,245,Older,5,"<?xml version=""1.0""?>\n<Clock xmlns:dt=""urn:schemas-microsoft-com:datatypes""><Description dt:dt=""string"">E-Prime Primary Realtime Clock</Description><StartTime><Timestamp dt:dt=""int"">0</Timestamp><DateUtc dt:dt=""string"">2021-07-15T15:04:59Z</DateUtc></StartTime><FrequencyChanges><FrequencyChange><Frequency dt:dt=""r8"">10000000</Frequency><Timestamp dt:dt=""r8"">2553442609478</Timestamp><Current dt:dt=""r8"">0</Current><DateUtc dt:dt=""string"">2021-07-15T15:04:59Z</DateUtc></FrequencyChange></FrequencyChanges></Clock>\n",Demo_Q_OAs-242-5,60,1.0.0.63,1,-2060895161,1,Full,3.0.3.9,3.0.3.80,15/07/2021,15/07/2021 15:04,11:04:59,3.0.3.82,Keyboard,1,Keyboard,69{ENTER},3648,Keyboard,09071951{ENTER},6776,Masters,Button,19,Button,Yes,Button,Caucasian ,Button,Female,Button,Left hand ,Button,Phase1,Proc1,Superblock,1,1,1,Keyboard,very good ,Button,very good,Button,very good ,Button,,Button
Demo_Q_OAs,246,Older,1,"<?xml version=""1.0""?>\n<Clock xmlns:dt=""urn:schemas-microsoft-com:datatypes""><Description dt:dt=""string"">E-Prime Primary Realtime Clock</Description><StartTime><Timestamp dt:dt=""int"">0</Timestamp><DateUtc dt:dt=""string"">2021-07-16T14:16:17Z</DateUtc></StartTime><FrequencyChanges><FrequencyChange><Frequency dt:dt=""r8"">10000000</Frequency><Timestamp dt:dt=""r8"">3388338440220</Timestamp><Current dt:dt=""r8"">0</Current><DateUtc dt:dt=""string"">2021-07-16T14:16:17Z</DateUtc></FrequencyChange></FrequencyChanges></Clock>\n",Demo_Q_OAs-242-6,60,1.0.0.63,1,-388738528,1,Full,3.0.3.9,3.0.3.80,16/07/2021,16/07/2021 14:16,10:16:17,3.0.3.82,Keyboard,1,Keyboard,67{ENTER},2748,Keyboard,07{/}01{/}1954{ENTER},11005,Masters,Button,19,Button,Yes,Button,Caucasian ,Button,Female,Button,Right hand,Button,Phase1,Proc1,Superblock,1,1,1,Keyboard,good,Button,good,Button,very good ,Button,,Button
Demo_Q_OAs,247,Older,2,"<?xml version=""1.0""?>\n<Clock xmlns:dt=""urn:schemas-microsoft-com:datatypes""><Description dt:dt=""string"">E-Prime Primary Realtime Clock</Description><StartTime><Timestamp dt:dt=""int"">0</Timestamp><DateUtc dt:dt=""string"">2021-07-16T19:02:18Z</DateUtc></StartTime><FrequencyChanges><FrequencyChange><Frequency dt:dt=""r8"">10000000</Frequency><Timestamp dt:dt=""r8"">3559984993242</Timestamp><Current dt:dt=""r8"">0</Current><DateUtc dt:dt=""string"">2021-07-16T19:02:18Z</DateUtc></FrequencyChange></FrequencyChanges></Clock>\n",Demo_Q_OAs-242-7,60,1.0.0.63,1,-540953966,1,Full,3.0.3.9,3.0.3.80,16/07/2021,16/07/2021 19:02,15:02:18,3.0.3.82,Keyboard,1,Keyboard,74{ENTER},5106,Keyboard,11{/}13{/}1946{ENTER},11177,Masters,Button,19,Button,Yes,Button,Caucasian ,Button,Male,Button,Right hand,Button,Phase1,Proc1,Superblock,1,1,1,Keyboard,good,Button,very good,Button,fair,Button,,Button
