ExperimentName,Subject,AgeGroup,Session,Clock.Information,DataFile.Basename,Display.RefreshRate,ExperimentVersion,Group,RandomSeed,RuntimeCapabilities,RuntimeVersion,RuntimeVersionExpected,SessionDate,SessionStartDateTimeUtc,SessionTime,StudioVersion,TextDisplay1.ACC,TextDisplay1.CRESP,TextDisplay1.RESP,TextDisplay1.RT,TextDisplay1.RTTime,Block,corrAns,first,fourth,List1,List1.Cycle,List1.Sample,Procedure,Running,second,Test.ACC,Test.CRESP,Test.DurationError,Test.OnsetDelay,Test.OnsetTime,Test.OnsetToOnsetTime,Test.RESP,Test.RT,Test.RTTime,third,TrialName,word
Shipley,101,Younger,1,"<?xml version=""1.0""?>\n<Clock xmlns:dt=""urn:schemas-microsoft-com:datatypes""><Description dt:dt=""string"">E-Prime Primary Realtime Clock</Description><StartTime><Timestamp dt:dt=""int"">0</Timestamp><DateUtc dt:dt=""string"">2019-10-09T14:54:57Z</DateUtc></StartTime><FrequencyChanges><FrequencyChange><Frequency dt:dt=""r8"">10000000</Frequency><Timestamp dt:dt=""r8"">4331300566067</Timestamp><Current dt:dt=""r8"">0</Current><DateUtc dt:dt=""string"">2019-10-09T14:54:57Z</DateUtc></FrequencyChange></FrequencyChanges></Clock>\n",Shipley-101-1,60,1.0.0.45,1,1975604516,Professional,2.0.10.356,2.0.10.356,10/9/2019,10/9/2019,10:54:57,2.0.10.252,0,,{SPACE},25005,31504,1,3,draw,sleep,1,1,1,trialProc,List1,eat,1,3,-999999,11,39899,0,3,4005,43904,speak,1),TALK
Shipley,101,Younger,1,"<?xml version=""1.0""?>\n<Clock xmlns:dt=""urn:schemas-microsoft-com:datatypes""><Description dt:dt=""string"">E-Prime Primary Realtime Clock</Description><StartTime><Timestamp dt:dt=""int"">0</Timestamp><DateUtc dt:dt=""string"">2019-10-09T14:54:57Z</DateUtc></StartTime><FrequencyChanges><FrequencyChange><Frequency dt:dt=""r8"">10000000</Frequency><Timestamp dt:dt=""r8"">4331300566067</Timestamp><Current dt:dt=""r8"">0</Current><DateUtc dt:dt=""string"">2019-10-09T14:54:57Z</DateUtc></FrequencyChange></FrequencyChanges></Clock>\n",Shipley-101-1,60,1.0.0.45,1,1975604516,Professional,2.0.10.356,2.0.10.356,10/9/2019,10/9/2019,10:54:57,2.0.10.252,0,,{SPACE},25005,31504,2,1,allow,drive,2,1,2,trialProc,List1,sew,1,1,-999999,11,43915,0,1,4821,48736,cut,2),PERMIT
Shipley,101,Younger,1,"<?xml version=""1.0""?>\n<Clock xmlns:dt=""urn:schemas-microsoft-com:datatypes""><Description dt:dt=""string"">E-Prime Primary Realtime Clock</Description><StartTime><Timestamp dt:dt=""int"">0</Timestamp><DateUtc dt:dt=""string"">2019-10-09T14:54:57Z</DateUtc></StartTime><FrequencyChanges><FrequencyChange><Frequency dt:dt=""r8"">10000000</Frequency><Timestamp dt:dt=""r8"">4331300566067</Timestamp><Current dt:dt=""r8"">0</Current><DateUtc dt:dt=""string"">2019-10-09T14:54:57Z</DateUtc></FrequencyChange></FrequencyChanges></Clock>\n",Shipley-101-1,60,1.0.0.45,1,1975604516,Professional,2.0.10.356,2.0.10.356,10/9/2019,10/9/2019,10:54:57,2.0.10.252,0,,{SPACE},25005,31504,3,1,forgive,tell,3,1,3,trialProc,List1,pount,0,1,-999999,13,48749,0,2,3651,52400,divide,3),PARDON
Shipley,101,Younger,1,"<?xml version=""1.0""?>\n<Clock xmlns:dt=""urn:schemas-microsoft-com:datatypes""><Description dt:dt=""string"">E-Prime Primary Realtime Clock</Description><StartTime><Timestamp dt:dt=""int"">0</Timestamp><DateUtc dt:dt=""string"">2019-10-09T14:54:57Z</DateUtc></StartTime><FrequencyChanges><FrequencyChange><Frequency dt:dt=""r8"">10000000</Frequency><Timestamp dt:dt=""r8"">4331300566067</Timestamp><Current dt:dt=""r8"">0</Current><DateUtc dt:dt=""string"">2019-10-09T14:54:57Z</DateUtc></FrequencyChange></FrequencyChanges></Clock>\n",Shipley-101-1,60,1.0.0.45,1,1975604516,Professional,2.0.10.356,2.0.10.356,10/9/2019,10/9/2019,10:54:57,2.0.10.252,0,,{SPACE},25005,31504,4,3,pin,glass,4,1,4,trialProc,List1,eraser,1,3,-999999,15,52415,0,3,7361,59776,sofa,4),COUCH
Shipley,101,Younger,1,"<?xml version=""1.0""?>\n<Clock xmlns:dt=""urn:schemas-microsoft-com:datatypes""><Description dt:dt=""string"">E-Prime Primary Realtime Clock</Description><StartTime><Timestamp dt:dt=""int"">0</Timestamp><DateUtc dt:dt=""string"">2019-10-09T14:54:57Z</DateUtc></StartTime><FrequencyChanges><FrequencyChange><Frequency dt:dt=""r8"">10000000</Frequency><Timestamp dt:dt=""r8"">4331300566067</Timestamp><Current dt:dt=""r8"">0</Current><DateUtc dt:dt=""string"">2019-10-09T14:54:57Z</DateUtc></FrequencyChange></FrequencyChanges></Clock>\n",Shipley-101-1,60,1.0.0.45,1,1975604516,Professional,2.0.10.356,2.0.10.356,10/9/2019,10/9/2019,10:54:57,2.0.10.252,0,,{SPACE},25005,31504,5,2,swim,defy,5,1,5,trialProc,List1,recall,1,2,-999999,23,59799,0,2,1849,61648,number,5),REMEMBER
Shipley,101,Younger,1,"<?xml version=""1.0""?>\n<Clock xmlns:dt=""urn:schemas-microsoft-com:datatypes""><Description dt:dt=""string"">E-Prime Primary Realtime Clock</Description><StartTime><Timestamp dt:dt=""int"">0</Timestamp><DateUtc dt:dt=""string"">2019-10-09T14:54:57Z</DateUtc></StartTime><FrequencyChanges><FrequencyChange><Frequency dt:dt=""r8"">10000000</Frequency><Timestamp dt:dt=""r8"">4331300566067</Timestamp><Current dt:dt=""r8"">0</Current><DateUtc dt:dt=""string"">2019-10-09T14:54:57Z</DateUtc></FrequencyChange></FrequencyChanges></Clock>\n",Shipley-101-1,60,1.0.0.45,1,1975604516,Professional,2.0.10.356,2.0.10.356,10/9/2019,10/9/2019,10:54:57,2.0.10.252,0,,{SPACE},25005,31504,6,3,drink,think,6,1,6,trialProc,List1,dress,1,3,-999999,17,61665,0,3,4575,66240,fall,6),TUMBLE
Shipley,101,Younger,1,"<?xml version=""1.0""?>\n<Clock xmlns:dt=""urn:schemas-microsoft-com:datatypes""><Description dt:dt=""string"">E-Prime Primary Realtime Clock</Description><StartTime><Timestamp dt:dt=""int"">0</Timestamp><DateUtc dt:dt=""string"">2019-10-09T14:54:57Z</DateUtc></StartTime><FrequencyChanges><FrequencyChange><Frequency dt:dt=""r8"">10000000</Frequency><Timestamp dt:dt=""r8"">4331300566067</Timestamp><Current dt:dt=""r8"">0</Current><DateUtc dt:dt=""string"">2019-10-09T14:54:57Z</DateUtc></FrequencyChange></FrequencyChanges></Clock>\n",Shipley-101-1,60,1.0.0.45,1,1975604516,Professional,2.0.10.356,2.0.10.356,10/9/2019,10/9/2019,10:54:57,2.0.10.252,0,,{SPACE},25005,31504,7,4,silvery,dreadful,7,1,7,trialProc,List1,tilted,1,4,-999999,25,66265,0,4,9367,75632,young,7),HIDEOUS
Shipley,101,Younger,1,"<?xml version=""1.0""?>\n<Clock xmlns:dt=""urn:schemas-microsoft-com:datatypes""><Description dt:dt=""string"">E-Prime Primary Realtime Clock</Description><StartTime><Timestamp dt:dt=""int"">0</Timestamp><DateUtc dt:dt=""string"">2019-10-09T14:54:57Z</DateUtc></StartTime><FrequencyChanges><FrequencyChange><Frequency dt:dt=""r8"">10000000</Frequency><Timestamp dt:dt=""r8"">4331300566067</Timestamp><Current dt:dt=""r8"">0</Current><DateUtc dt:dt=""string"">2019-10-09T14:54:57Z</DateUtc></FrequencyChange></FrequencyChanges></Clock>\n",Shipley-101-1,60,1.0.0.45,1,1975604516,Professional,2.0.10.356,2.0.10.356,10/9/2019,10/9/2019,10:54:57,2.0.10.252,0,,{SPACE},25005,31504,8,4,swift,hearty,8,1,8,trialProc,List1,muddy,0,4,-999999,17,75649,0,1,9087,84736,leafy,8),CORDIAL
Shipley,101,Younger,1,"<?xml version=""1.0""?>\n<Clock xmlns:dt=""urn:schemas-microsoft-com:datatypes""><Description dt:dt=""string"">E-Prime Primary Realtime Clock</Description><StartTime><Timestamp dt:dt=""int"">0</Timestamp><DateUtc dt:dt=""string"">2019-10-09T14:54:57Z</DateUtc></StartTime><FrequencyChanges><FrequencyChange><Frequency dt:dt=""r8"">10000000</Frequency><Timestamp dt:dt=""r8"">4331300566067</Timestamp><Current dt:dt=""r8"">0</Current><DateUtc dt:dt=""string"">2019-10-09T14:54:57Z</DateUtc></FrequencyChange></FrequencyChanges></Clock>\n",Shipley-101-1,60,1.0.0.45,1,1975604516,Professional,2.0.10.356,2.0.10.356,10/9/2019,10/9/2019,10:54:57,2.0.10.252,0,,{SPACE},25005,31504,9,2,green,afraid,9,1,9,trialProc,List1,obvious,1,2,-999999,13,84749,0,2,5091,89840,skeptical,9),EVIDENT
Shipley,101,Younger,1,"<?xml version=""1.0""?>\n<Clock xmlns:dt=""urn:schemas-microsoft-com:datatypes""><Description dt:dt=""string"">E-Prime Primary Realtime Clock</Description><StartTime><Timestamp dt:dt=""int"">0</Timestamp><DateUtc dt:dt=""string"">2019-10-09T14:54:57Z</DateUtc></StartTime><FrequencyChanges><FrequencyChange><Frequency dt:dt=""r8"">10000000</Frequency><Timestamp dt:dt=""r8"">4331300566067</Timestamp><Current dt:dt=""r8"">0</Current><DateUtc dt:dt=""string"">2019-10-09T14:54:57Z</DateUtc></FrequencyChange></FrequencyChanges></Clock>\n",Shipley-101-1,60,1.0.0.45,1,1975604516,Professional,2.0.10.356,2.0.10.356,10/9/2019,10/9/2019,10:54:57,2.0.10.252,0,,{SPACE},25005,31504,10,4,conductor,pretender,10,1,10,trialProc,List1,officer,1,4,-999999,25,89865,0,4,4087,93952,book,10),IMPOSTOR
Shipley,101,Younger,1,"<?xml version=""1.0""?>\n<Clock xmlns:dt=""urn:schemas-microsoft-com:datatypes""><Description dt:dt=""string"">E-Prime Primary Realtime Clock</Description><StartTime><Timestamp dt:dt=""int"">0</Timestamp><DateUtc dt:dt=""string"">2019-10-09T14:54:57Z</DateUtc></StartTime><FrequencyChanges><FrequencyChange><Frequency dt:dt=""r8"">10000000</Frequency><Timestamp dt:dt=""r8"">4331300566067</Timestamp><Current dt:dt=""r8"">0</Current><DateUtc dt:dt=""string"">2019-10-09T14:54:57Z</DateUtc></FrequencyChange></FrequencyChanges></Clock>\n",Shipley-101-1,60,1.0.0.45,1,1975604516,Professional,2.0.10.356,2.0.10.356,10/9/2019,10/9/2019,10:54:57,2.0.10.252,0,,{SPACE},25005,31504,11,1,deserve,separate,11,1,11,trialProc,List1,distrust,1,1,-999999,13,93965,0,1,4307,98272,fight,11),MERIT
Shipley,101,Younger,1,"<?xml version=""1.0""?>\n<Clock xmlns:dt=""urn:schemas-microsoft-com:datatypes""><Description dt:dt=""string"">E-Prime Primary Realtime Clock</Description><StartTime><Timestamp dt:dt=""int"">0</Timestamp><DateUtc dt:dt=""string"">2019-10-09T14:54:57Z</DateUtc></StartTime><FrequencyChanges><FrequencyChange><Frequency dt:dt=""r8"">10000000</Frequency><Timestamp dt:dt=""r8"">4331300566067</Timestamp><Current dt:dt=""r8"">0</Current><DateUtc dt:dt=""string"">2019-10-09T14:54:57Z</DateUtc></FrequencyChange></FrequencyChanges></Clock>\n",Shipley-101-1,60,1.0.0.45,1,1975604516,Professional,2.0.10.356,2.0.10.356,10/9/2019,10/9/2019,10:54:57,2.0.10.252,0,,{SPACE},25005,31504,12,4,welcome,enchant,12,1,12,trialProc,List1,fix,1,4,-999999,27,98299,0,4,4069,102368,stir,12),FASCINATE
Shipley,101,Younger,1,"<?xml version=""1.0""?>\n<Clock xmlns:dt=""urn:schemas-microsoft-com:datatypes""><Description dt:dt=""string"">E-Prime Primary Realtime Clock</Description><StartTime><Timestamp dt:dt=""int"">0</Timestamp><DateUtc dt:dt=""string"">2019-10-09T14:54:57Z</DateUtc></StartTime><FrequencyChanges><FrequencyChange><Frequency dt:dt=""r8"">10000000</Frequency><Timestamp dt:dt=""r8"">4331300566067</Timestamp><Current dt:dt=""r8"">0</Current><DateUtc dt:dt=""string"">2019-10-09T14:54:57Z</DateUtc></FrequencyChange></FrequencyChanges></Clock>\n",Shipley-101-1,60,1.0.0.45,1,1975604516,Professional,2.0.10.356,2.0.10.356,10/9/2019,10/9/2019,10:54:57,2.0.10.252,0,,{SPACE},25005,31504,13,3,defy,bicker,13,1,13,trialProc,List1,excite,1,3,-999999,14,102382,0,3,4290,106672,signify,13),INDICATE
Shipley,101,Younger,1,"<?xml version=""1.0""?>\n<Clock xmlns:dt=""urn:schemas-microsoft-com:datatypes""><Description dt:dt=""string"">E-Prime Primary Realtime Clock</Description><StartTime><Timestamp dt:dt=""int"">0</Timestamp><DateUtc dt:dt=""string"">2019-10-09T14:54:57Z</DateUtc></StartTime><FrequencyChanges><FrequencyChange><Frequency dt:dt=""r8"">10000000</Frequency><Timestamp dt:dt=""r8"">4331300566067</Timestamp><Current dt:dt=""r8"">0</Current><DateUtc dt:dt=""string"">2019-10-09T14:54:57Z</DateUtc></FrequencyChange></FrequencyChanges></Clock>\n",Shipley-101-1,60,1.0.0.45,1,1975604516,Professional,2.0.10.356,2.0.10.356,10/9/2019,10/9/2019,10:54:57,2.0.10.252,0,,{SPACE},25005,31504,14,3,red,precise,14,1,14,trialProc,List1,sharp,1,3,-999999,10,106682,0,3,4502,111184,uninformed,14),IGNORANT
Shipley,101,Younger,1,"<?xml version=""1.0""?>\n<Clock xmlns:dt=""urn:schemas-microsoft-com:datatypes""><Description dt:dt=""string"">E-Prime Primary Realtime Clock</Description><StartTime><Timestamp dt:dt=""int"">0</Timestamp><DateUtc dt:dt=""string"">2019-10-09T14:54:57Z</DateUtc></StartTime><FrequencyChanges><FrequencyChange><Frequency dt:dt=""r8"">10000000</Frequency><Timestamp dt:dt=""r8"">4331300566067</Timestamp><Current dt:dt=""r8"">0</Current><DateUtc dt:dt=""string"">2019-10-09T14:54:57Z</DateUtc></FrequencyChange></FrequencyChanges></Clock>\n",Shipley-101-1,60,1.0.0.45,1,1975604516,Professional,2.0.10.356,2.0.10.356,10/9/2019,10/9/2019,10:54:57,2.0.10.252,0,,{SPACE},25005,31504,15,2,submerge,deaden,15,1,15,trialProc,List1,strengthen,1,2,-999999,15,111199,0,2,6017,117216,vent,15),FORTIFY
Shipley,101,Younger,1,"<?xml version=""1.0""?>\n<Clock xmlns:dt=""urn:schemas-microsoft-com:datatypes""><Description dt:dt=""string"">E-Prime Primary Realtime Clock</Description><StartTime><Timestamp dt:dt=""int"">0</Timestamp><DateUtc dt:dt=""string"">2019-10-09T14:54:57Z</DateUtc></StartTime><FrequencyChanges><FrequencyChange><Frequency dt:dt=""r8"">10000000</Frequency><Timestamp dt:dt=""r8"">4331300566067</Timestamp><Current dt:dt=""r8"">0</Current><DateUtc dt:dt=""string"">2019-10-09T14:54:57Z</DateUtc></FrequencyChange></FrequencyChanges></Clock>\n",Shipley-101-1,60,1.0.0.45,1,1975604516,Professional,2.0.10.356,2.0.10.356,10/9/2019,10/9/2019,10:54:57,2.0.10.252,0,,{SPACE},25005,31504,16,3,length,loyalty,16,1,16,trialProc,List1,head,1,3,-999999,16,117232,0,3,7360,124592,fame,16),RENOWN
Shipley,101,Younger,1,"<?xml version=""1.0""?>\n<Clock xmlns:dt=""urn:schemas-microsoft-com:datatypes""><Description dt:dt=""string"">E-Prime Primary Realtime Clock</Description><StartTime><Timestamp dt:dt=""int"">0</Timestamp><DateUtc dt:dt=""string"">2019-10-09T14:54:57Z</DateUtc></StartTime><FrequencyChanges><FrequencyChange><Frequency dt:dt=""r8"">10000000</Frequency><Timestamp dt:dt=""r8"">4331300566067</Timestamp><Current dt:dt=""r8"">0</Current><DateUtc dt:dt=""string"">2019-10-09T14:54:57Z</DateUtc></FrequencyChange></FrequencyChanges></Clock>\n",Shipley-101-1,60,1.0.0.45,1,1975604516,Professional,2.0.10.356,2.0.10.356,10/9/2019,10/9/2019,10:54:57,2.0.10.252,0,,{SPACE},25005,31504,17,4,yield,tell,17,1,17,trialProc,List1,buy,1,4,-999999,23,124615,0,4,3929,128544,associate,17),NARRATE
Shipley,101,Younger,1,"<?xml version=""1.0""?>\n<Clock xmlns:dt=""urn:schemas-microsoft-com:datatypes""><Description dt:dt=""string"">E-Prime Primary Realtime Clock</Description><StartTime><Timestamp dt:dt=""int"">0</Timestamp><DateUtc dt:dt=""string"">2019-10-09T14:54:57Z</DateUtc></StartTime><FrequencyChanges><FrequencyChange><Frequency dt:dt=""r8"">10000000</Frequency><Timestamp dt:dt=""r8"">4331300566067</Timestamp><Current dt:dt=""r8"">0</Current><DateUtc dt:dt=""string"">2019-10-09T14:54:57Z</DateUtc></FrequencyChange></FrequencyChanges></Clock>\n",Shipley-101-1,60,1.0.0.45,1,1975604516,Professional,2.0.10.356,2.0.10.356,10/9/2019,10/9/2019,10:54:57,2.0.10.252,0,,{SPACE},25005,31504,18,2,bright,low,18,1,18,trialProc,List1,large,1,2,-999999,21,128565,0,2,2379,130944,speedy,18),MASSIVE
Shipley,101,Younger,1,"<?xml version=""1.0""?>\n<Clock xmlns:dt=""urn:schemas-microsoft-com:datatypes""><Description dt:dt=""string"">E-Prime Primary Realtime Clock</Description><StartTime><Timestamp dt:dt=""int"">0</Timestamp><DateUtc dt:dt=""string"">2019-10-09T14:54:57Z</DateUtc></StartTime><FrequencyChanges><FrequencyChange><Frequency dt:dt=""r8"">10000000</Frequency><Timestamp dt:dt=""r8"">4331300566067</Timestamp><Current dt:dt=""r8"">0</Current><DateUtc dt:dt=""string"">2019-10-09T14:54:57Z</DateUtc></FrequencyChange></FrequencyChanges></Clock>\n",Shipley-101-1,60,1.0.0.45,1,1975604516,Professional,2.0.10.356,2.0.10.356,10/9/2019,10/9/2019,10:54:57,2.0.10.252,0,,{SPACE},25005,31504,19,1,laughter,malice,19,1,19,trialProc,List1,speed,0,1,-999999,21,130965,0,3,11227,142192,grace,19),HILARITY
Shipley,101,Younger,1,"<?xml version=""1.0""?>\n<Clock xmlns:dt=""urn:schemas-microsoft-com:datatypes""><Description dt:dt=""string"">E-Prime Primary Realtime Clock</Description><StartTime><Timestamp dt:dt=""int"">0</Timestamp><DateUtc dt:dt=""string"">2019-10-09T14:54:57Z</DateUtc></StartTime><FrequencyChanges><FrequencyChange><Frequency dt:dt=""r8"">10000000</Frequency><Timestamp dt:dt=""r8"">4331300566067</Timestamp><Current dt:dt=""r8"">0</Current><DateUtc dt:dt=""string"">2019-10-09T14:54:57Z</DateUtc></FrequencyChange></FrequencyChanges></Clock>\n",Shipley-101-1,60,1.0.0.45,1,1975604516,Professional,2.0.10.356,2.0.10.356,10/9/2019,10/9/2019,10:54:57,2.0.10.252,0,,{SPACE},25005,31504,20,4,stolen,soiled,20,1,20,trialProc,List1,pointed,0,4,-999999,23,142215,0,2,14457,156672,remade,20),SMIRCHED
Shipley,101,Younger,1,"<?xml version=""1.0""?>\n<Clock xmlns:dt=""urn:schemas-microsoft-com:datatypes""><Description dt:dt=""string"">E-Prime Primary Realtime Clock</Description><StartTime><Timestamp dt:dt=""int"">0</Timestamp><DateUtc dt:dt=""string"">2019-10-09T14:54:57Z</DateUtc></StartTime><FrequencyChanges><FrequencyChange><Frequency dt:dt=""r8"">10000000</Frequency><Timestamp dt:dt=""r8"">4331300566067</Timestamp><Current dt:dt=""r8"">0</Current><DateUtc dt:dt=""string"">2019-10-09T14:54:57Z</DateUtc></FrequencyChange></FrequencyChanges></Clock>\n",Shipley-101-1,60,1.0.0.45,1,1975604516,Professional,2.0.10.356,2.0.10.356,10/9/2019,10/9/2019,10:54:57,2.0.10.252,0,,{SPACE},25005,31504,21,4,tease,waste,21,1,21,trialProc,List1,belittle,1,4,-999999,27,156699,0,4,4085,160784,cut,21),SQUANDER
Shipley,101,Younger,1,"<?xml version=""1.0""?>\n<Clock xmlns:dt=""urn:schemas-microsoft-com:datatypes""><Description dt:dt=""string"">E-Prime Primary Realtime Clock</Description><StartTime><Timestamp dt:dt=""int"">0</Timestamp><DateUtc dt:dt=""string"">2019-10-09T14:54:57Z</DateUtc></StartTime><FrequencyChanges><FrequencyChange><Frequency dt:dt=""r8"">10000000</Frequency><Timestamp dt:dt=""r8"">4331300566067</Timestamp><Current dt:dt=""r8"">0</Current><DateUtc dt:dt=""string"">2019-10-09T14:54:57Z</DateUtc></FrequencyChange></FrequencyChanges></Clock>\n",Shipley-101-1,60,1.0.0.45,1,1975604516,Professional,2.0.10.356,2.0.10.356,10/9/2019,10/9/2019,10:54:57,2.0.10.252,0,,{SPACE},25005,31504,22,3,drum,ape,22,1,22,trialProc,List1,ballast,1,3,-999999,15,160799,0,3,9201,170000,heading,22),CAPTION
Shipley,101,Younger,1,"<?xml version=""1.0""?>\n<Clock xmlns:dt=""urn:schemas-microsoft-com:datatypes""><Description dt:dt=""string"">E-Prime Primary Realtime Clock</Description><StartTime><Timestamp dt:dt=""int"">0</Timestamp><DateUtc dt:dt=""string"">2019-10-09T14:54:57Z</DateUtc></StartTime><FrequencyChanges><FrequencyChange><Frequency dt:dt=""r8"">10000000</Frequency><Timestamp dt:dt=""r8"">4331300566067</Timestamp><Current dt:dt=""r8"">0</Current><DateUtc dt:dt=""string"">2019-10-09T14:54:57Z</DateUtc></FrequencyChange></FrequencyChanges></Clock>\n",Shipley-101-1,60,1.0.0.45,1,1975604516,Professional,2.0.10.356,2.0.10.356,10/9/2019,10/9/2019,10:54:57,2.0.10.252,0,,{SPACE},25005,31504,23,1,help,bewilder,23,1,23,trialProc,List1,turn,1,1,-999999,15,170015,0,1,8433,178448,strip,23),FACILITATE
Shipley,101,Younger,1,"<?xml version=""1.0""?>\n<Clock xmlns:dt=""urn:schemas-microsoft-com:datatypes""><Description dt:dt=""string"">E-Prime Primary Realtime Clock</Description><StartTime><Timestamp dt:dt=""int"">0</Timestamp><DateUtc dt:dt=""string"">2019-10-09T14:54:57Z</DateUtc></StartTime><FrequencyChanges><FrequencyChange><Frequency dt:dt=""r8"">10000000</Frequency><Timestamp dt:dt=""r8"">4331300566067</Timestamp><Current dt:dt=""r8"">0</Current><DateUtc dt:dt=""string"">2019-10-09T14:54:57Z</DateUtc></FrequencyChange></FrequencyChanges></Clock>\n",Shipley-101-1,60,1.0.0.45,1,1975604516,Professional,2.0.10.356,2.0.10.356,10/9/2019,10/9/2019,10:54:57,2.0.10.252,0,,{SPACE},25005,31504,24,1,humorous,plain,24,1,24,trialProc,List1,paltry,0,1,-999999,17,178465,0,3,11263,189728,fervid,24),JOCOSE
Shipley,101,Younger,1,"<?xml version=""1.0""?>\n<Clock xmlns:dt=""urn:schemas-microsoft-com:datatypes""><Description dt:dt=""string"">E-Prime Primary Realtime Clock</Description><StartTime><Timestamp dt:dt=""int"">0</Timestamp><DateUtc dt:dt=""string"">2019-10-09T14:54:57Z</DateUtc></StartTime><FrequencyChanges><FrequencyChange><Frequency dt:dt=""r8"">10000000</Frequency><Timestamp dt:dt=""r8"">4331300566067</Timestamp><Current dt:dt=""r8"">0</Current><DateUtc dt:dt=""string"">2019-10-09T14:54:57Z</DateUtc></FrequencyChange></FrequencyChanges></Clock>\n",Shipley-101-1,60,1.0.0.45,1,1975604516,Professional,2.0.10.356,2.0.10.356,10/9/2019,10/9/2019,10:54:57,2.0.10.252,0,,{SPACE},25005,31504,25,3,reduce,delight,25,1,25,trialProc,List1,strew,0,3,-999999,21,189749,0,1,19051,208800,inform,25),APPRISE
Shipley,101,Younger,1,"<?xml version=""1.0""?>\n<Clock xmlns:dt=""urn:schemas-microsoft-com:datatypes""><Description dt:dt=""string"">E-Prime Primary Realtime Clock</Description><StartTime><Timestamp dt:dt=""int"">0</Timestamp><DateUtc dt:dt=""string"">2019-10-09T14:54:57Z</DateUtc></StartTime><FrequencyChanges><FrequencyChange><Frequency dt:dt=""r8"">10000000</Frequency><Timestamp dt:dt=""r8"">4331300566067</Timestamp><Current dt:dt=""r8"">0</Current><DateUtc dt:dt=""string"">2019-10-09T14:54:57Z</DateUtc></FrequencyChange></FrequencyChanges></Clock>\n",Shipley-101-1,60,1.0.0.45,1,1975604516,Professional,2.0.10.356,2.0.10.356,10/9/2019,10/9/2019,10:54:57,2.0.10.252,0,,{SPACE},25005,31504,26,2,eat,cure,26,1,26,trialProc,List1,lament,1,2,-999999,15,208815,0,2,5809,214624,dominate,26),RUE
Shipley,101,Younger,1,"<?xml version=""1.0""?>\n<Clock xmlns:dt=""urn:schemas-microsoft-com:datatypes""><Description dt:dt=""string"">E-Prime Primary Realtime Clock</Description><StartTime><Timestamp dt:dt=""int"">0</Timestamp><DateUtc dt:dt=""string"">2019-10-09T14:54:57Z</DateUtc></StartTime><FrequencyChanges><FrequencyChange><Frequency dt:dt=""r8"">10000000</Frequency><Timestamp dt:dt=""r8"">4331300566067</Timestamp><Current dt:dt=""r8"">0</Current><DateUtc dt:dt=""string"">2019-10-09T14:54:57Z</DateUtc></FrequencyChange></FrequencyChanges></Clock>\n",Shipley-101-1,60,1.0.0.45,1,1975604516,Professional,2.0.10.356,2.0.10.356,10/9/2019,10/9/2019,10:54:57,2.0.10.252,0,,{SPACE},25005,31504,27,2,senator,atom,27,1,27,trialProc,List1,inhabitant,1,2,-999999,25,214649,0,2,9495,224144,fish,27),DENIZEN
Shipley,101,Younger,1,"<?xml version=""1.0""?>\n<Clock xmlns:dt=""urn:schemas-microsoft-com:datatypes""><Description dt:dt=""string"">E-Prime Primary Realtime Clock</Description><StartTime><Timestamp dt:dt=""int"">0</Timestamp><DateUtc dt:dt=""string"">2019-10-09T14:54:57Z</DateUtc></StartTime><FrequencyChanges><FrequencyChange><Frequency dt:dt=""r8"">10000000</Frequency><Timestamp dt:dt=""r8"">4331300566067</Timestamp><Current dt:dt=""r8"">0</Current><DateUtc dt:dt=""string"">2019-10-09T14:54:57Z</DateUtc></FrequencyChange></FrequencyChanges></Clock>\n",Shipley-101-1,60,1.0.0.45,1,1975604516,Professional,2.0.10.356,2.0.10.356,10/9/2019,10/9/2019,10:54:57,2.0.10.252,0,,{SPACE},25005,31504,28,1,dispossess,pledge,28,1,28,trialProc,List1,intrude,0,1,-999999,21,224165,0,4,13067,237232,rally,28),DIVEST
Shipley,101,Younger,1,"<?xml version=""1.0""?>\n<Clock xmlns:dt=""urn:schemas-microsoft-com:datatypes""><Description dt:dt=""string"">E-Prime Primary Realtime Clock</Description><StartTime><Timestamp dt:dt=""int"">0</Timestamp><DateUtc dt:dt=""string"">2019-10-09T14:54:57Z</DateUtc></StartTime><FrequencyChanges><FrequencyChange><Frequency dt:dt=""r8"">10000000</Frequency><Timestamp dt:dt=""r8"">4331300566067</Timestamp><Current dt:dt=""r8"">0</Current><DateUtc dt:dt=""string"">2019-10-09T14:54:57Z</DateUtc></FrequencyChange></FrequencyChanges></Clock>\n",Shipley-101-1,60,1.0.0.45,1,1975604516,Professional,2.0.10.356,2.0.10.356,10/9/2019,10/9/2019,10:54:57,2.0.10.252,0,,{SPACE},25005,31504,29,1,charm,pong,29,1,29,trialProc,List1,orphan,1,1,-999999,17,237249,0,1,4495,241744,dingo,29),AMULET
Shipley,101,Younger,1,"<?xml version=""1.0""?>\n<Clock xmlns:dt=""urn:schemas-microsoft-com:datatypes""><Description dt:dt=""string"">E-Prime Primary Realtime Clock</Description><StartTime><Timestamp dt:dt=""int"">0</Timestamp><DateUtc dt:dt=""string"">2019-10-09T14:54:57Z</DateUtc></StartTime><FrequencyChanges><FrequencyChange><Frequency dt:dt=""r8"">10000000</Frequency><Timestamp dt:dt=""r8"">4331300566067</Timestamp><Current dt:dt=""r8"">0</Current><DateUtc dt:dt=""string"">2019-10-09T14:54:57Z</DateUtc></FrequencyChange></FrequencyChanges></Clock>\n",Shipley-101-1,60,1.0.0.45,1,1975604516,Professional,2.0.10.356,2.0.10.356,10/9/2019,10/9/2019,10:54:57,2.0.10.252,0,,{SPACE},25005,31504,30,3,untidy,sparse,30,1,30,trialProc,List1,involatile,1,3,-999999,21,241765,0,3,10778,252543,rigid,30),INEXORABLE
Shipley,101,Younger,1,"<?xml version=""1.0""?>\n<Clock xmlns:dt=""urn:schemas-microsoft-com:datatypes""><Description dt:dt=""string"">E-Prime Primary Realtime Clock</Description><StartTime><Timestamp dt:dt=""int"">0</Timestamp><DateUtc dt:dt=""string"">2019-10-09T14:54:57Z</DateUtc></StartTime><FrequencyChanges><FrequencyChange><Frequency dt:dt=""r8"">10000000</Frequency><Timestamp dt:dt=""r8"">4331300566067</Timestamp><Current dt:dt=""r8"">0</Current><DateUtc dt:dt=""string"">2019-10-09T14:54:57Z</DateUtc></FrequencyChange></FrequencyChanges></Clock>\n",Shipley-101-1,60,1.0.0.45,1,1975604516,Professional,2.0.10.356,2.0.10.356,10/9/2019,10/9/2019,10:54:57,2.0.10.252,0,,{SPACE},25005,31504,31,2,dried,blunt,31,1,31,trialProc,List1,notched,1,2,-999999,21,252565,0,2,11915,264480,armed,31),SERRATED
Shipley,101,Younger,1,"<?xml version=""1.0""?>\n<Clock xmlns:dt=""urn:schemas-microsoft-com:datatypes""><Description dt:dt=""string"">E-Prime Primary Realtime Clock</Description><StartTime><Timestamp dt:dt=""int"">0</Timestamp><DateUtc dt:dt=""string"">2019-10-09T14:54:57Z</DateUtc></StartTime><FrequencyChanges><FrequencyChange><Frequency dt:dt=""r8"">10000000</Frequency><Timestamp dt:dt=""r8"">4331300566067</Timestamp><Current dt:dt=""r8"">0</Current><DateUtc dt:dt=""string"">2019-10-09T14:54:57Z</DateUtc></FrequencyChange></FrequencyChanges></Clock>\n",Shipley-101-1,60,1.0.0.45,1,1975604516,Professional,2.0.10.356,2.0.10.356,10/9/2019,10/9/2019,10:54:57,2.0.10.252,0,,{SPACE},25005,31504,32,3,moldy,convex,32,1,32,trialProc,List1,loose,1,3,-999999,19,264499,0,3,12316,276815,supple,32),LISSOM
Shipley,101,Younger,1,"<?xml version=""1.0""?>\n<Clock xmlns:dt=""urn:schemas-microsoft-com:datatypes""><Description dt:dt=""string"">E-Prime Primary Realtime Clock</Description><StartTime><Timestamp dt:dt=""int"">0</Timestamp><DateUtc dt:dt=""string"">2019-10-09T14:54:57Z</DateUtc></StartTime><FrequencyChanges><FrequencyChange><Frequency dt:dt=""r8"">10000000</Frequency><Timestamp dt:dt=""r8"">4331300566067</Timestamp><Current dt:dt=""r8"">0</Current><DateUtc dt:dt=""string"">2019-10-09T14:54:57Z</DateUtc></FrequencyChange></FrequencyChanges></Clock>\n",Shipley-101-1,60,1.0.0.45,1,1975604516,Professional,2.0.10.356,2.0.10.356,10/9/2019,10/9/2019,10:54:57,2.0.10.252,0,,{SPACE},25005,31504,33,1,mitigate,abuse,33,1,33,trialProc,List1,direct,0,1,-999999,16,276832,0,3,13215,290047,pertain,33),MOLLIFY
Shipley,101,Younger,1,"<?xml version=""1.0""?>\n<Clock xmlns:dt=""urn:schemas-microsoft-com:datatypes""><Description dt:dt=""string"">E-Prime Primary Realtime Clock</Description><StartTime><Timestamp dt:dt=""int"">0</Timestamp><DateUtc dt:dt=""string"">2019-10-09T14:54:57Z</DateUtc></StartTime><FrequencyChanges><FrequencyChange><Frequency dt:dt=""r8"">10000000</Frequency><Timestamp dt:dt=""r8"">4331300566067</Timestamp><Current dt:dt=""r8"">0</Current><DateUtc dt:dt=""string"">2019-10-09T14:54:57Z</DateUtc></FrequencyChange></FrequencyChanges></Clock>\n",Shipley-101-1,60,1.0.0.45,1,1975604516,Professional,2.0.10.356,2.0.10.356,10/9/2019,10/9/2019,10:54:57,2.0.10.252,0,,{SPACE},25005,31504,34,1,appropriate,maintain,34,1,34,trialProc,List1,intend,0,1,-999999,17,290065,0,3,9407,299472,revoke,34),PLAGIARIZE
Shipley,101,Younger,1,"<?xml version=""1.0""?>\n<Clock xmlns:dt=""urn:schemas-microsoft-com:datatypes""><Description dt:dt=""string"">E-Prime Primary Realtime Clock</Description><StartTime><Timestamp dt:dt=""int"">0</Timestamp><DateUtc dt:dt=""string"">2019-10-09T14:54:57Z</DateUtc></StartTime><FrequencyChanges><FrequencyChange><Frequency dt:dt=""r8"">10000000</Frequency><Timestamp dt:dt=""r8"">4331300566067</Timestamp><Current dt:dt=""r8"">0</Current><DateUtc dt:dt=""string"">2019-10-09T14:54:57Z</DateUtc></FrequencyChange></FrequencyChanges></Clock>\n",Shipley-101-1,60,1.0.0.45,1,1975604516,Professional,2.0.10.356,2.0.10.356,10/9/2019,10/9/2019,10:54:57,2.0.10.252,0,,{SPACE},25005,31504,35,2,brush,lute,35,1,35,trialProc,List1,hole,1,2,-999999,10,299482,0,2,11301,310783,building,35),ORIFICE
Shipley,101,Younger,1,"<?xml version=""1.0""?>\n<Clock xmlns:dt=""urn:schemas-microsoft-com:datatypes""><Description dt:dt=""string"">E-Prime Primary Realtime Clock</Description><StartTime><Timestamp dt:dt=""int"">0</Timestamp><DateUtc dt:dt=""string"">2019-10-09T14:54:57Z</DateUtc></StartTime><FrequencyChanges><FrequencyChange><Frequency dt:dt=""r8"">10000000</Frequency><Timestamp dt:dt=""r8"">4331300566067</Timestamp><Current dt:dt=""r8"">0</Current><DateUtc dt:dt=""string"">2019-10-09T14:54:57Z</DateUtc></FrequencyChange></FrequencyChanges></Clock>\n",Shipley-101-1,60,1.0.0.45,1,1975604516,Professional,2.0.10.356,2.0.10.356,10/9/2019,10/9/2019,10:54:57,2.0.10.252,0,,{SPACE},25005,31504,36,4,maniacal,complaining,36,1,36,trialProc,List1,curious,1,4,-999999,16,310799,0,4,11168,321967,devout,36),QUERULOUS
Shipley,101,Younger,1,"<?xml version=""1.0""?>\n<Clock xmlns:dt=""urn:schemas-microsoft-com:datatypes""><Description dt:dt=""string"">E-Prime Primary Realtime Clock</Description><StartTime><Timestamp dt:dt=""int"">0</Timestamp><DateUtc dt:dt=""string"">2019-10-09T14:54:57Z</DateUtc></StartTime><FrequencyChanges><FrequencyChange><Frequency dt:dt=""r8"">10000000</Frequency><Timestamp dt:dt=""r8"">4331300566067</Timestamp><Current dt:dt=""r8"">0</Current><DateUtc dt:dt=""string"">2019-10-09T14:54:57Z</DateUtc></FrequencyChange></FrequencyChanges></Clock>\n",Shipley-101-1,60,1.0.0.45,1,1975604516,Professional,2.0.10.356,2.0.10.356,10/9/2019,10/9/2019,10:54:57,2.0.10.252,0,,{SPACE},25005,31504,37,1,outcast,locker,37,1,37,trialProc,List1,priest,0,1,-999999,15,321982,0,3,17745,339727,lentil,37),PARIAH
Shipley,101,Younger,1,"<?xml version=""1.0""?>\n<Clock xmlns:dt=""urn:schemas-microsoft-com:datatypes""><Description dt:dt=""string"">E-Prime Primary Realtime Clock</Description><StartTime><Timestamp dt:dt=""int"">0</Timestamp><DateUtc dt:dt=""string"">2019-10-09T14:54:57Z</DateUtc></StartTime><FrequencyChanges><FrequencyChange><Frequency dt:dt=""r8"">10000000</Frequency><Timestamp dt:dt=""r8"">4331300566067</Timestamp><Current dt:dt=""r8"">0</Current><DateUtc dt:dt=""string"">2019-10-09T14:54:57Z</DateUtc></FrequencyChange></FrequencyChanges></Clock>\n",Shipley-101-1,60,1.0.0.45,1,1975604516,Professional,2.0.10.356,2.0.10.356,10/9/2019,10/9/2019,10:54:57,2.0.10.252,0,,{SPACE},25005,31504,38,3,waken,placate,38,1,38,trialProc,List1,ensue,0,3,-999999,21,339749,0,2,6090,345839,incite,38),ABET
Shipley,101,Younger,1,"<?xml version=""1.0""?>\n<Clock xmlns:dt=""urn:schemas-microsoft-com:datatypes""><Description dt:dt=""string"">E-Prime Primary Realtime Clock</Description><StartTime><Timestamp dt:dt=""int"">0</Timestamp><DateUtc dt:dt=""string"">2019-10-09T14:54:57Z</DateUtc></StartTime><FrequencyChanges><FrequencyChange><Frequency dt:dt=""r8"">10000000</Frequency><Timestamp dt:dt=""r8"">4331300566067</Timestamp><Current dt:dt=""r8"">0</Current><DateUtc dt:dt=""string"">2019-10-09T14:54:57Z</DateUtc></FrequencyChange></FrequencyChanges></Clock>\n",Shipley-101-1,60,1.0.0.45,1,1975604516,Professional,2.0.10.356,2.0.10.356,10/9/2019,10/9/2019,10:54:57,2.0.10.252,0,,{SPACE},25005,31504,39,1,rashness,kindness,39,1,39,trialProc,List1,timidity,0,1,-999999,25,345865,0,3,16742,362607,desire,39),TEMERITY
Shipley,101,Younger,1,"<?xml version=""1.0""?>\n<Clock xmlns:dt=""urn:schemas-microsoft-com:datatypes""><Description dt:dt=""string"">E-Prime Primary Realtime Clock</Description><StartTime><Timestamp dt:dt=""int"">0</Timestamp><DateUtc dt:dt=""string"">2019-10-09T14:54:57Z</DateUtc></StartTime><FrequencyChanges><FrequencyChange><Frequency dt:dt=""r8"">10000000</Frequency><Timestamp dt:dt=""r8"">4331300566067</Timestamp><Current dt:dt=""r8"">0</Current><DateUtc dt:dt=""string"">2019-10-09T14:54:57Z</DateUtc></FrequencyChange></FrequencyChanges></Clock>\n",Shipley-101-1,60,1.0.0.45,1,1975604516,Professional,2.0.10.356,2.0.10.356,10/9/2019,10/9/2019 14:54,10:54:57,2.0.10.252,0,,{SPACE},25005,31504,40,3,vain,level,40,1,40,trialProc,List1,sound,1,3,-999999,24,362632,0,3,12663,375295,first,40),PRISTINE
Shipley,102,Younger,2,"<?xml version=""1.0""?>\n<Clock xmlns:dt=""urn:schemas-microsoft-com:datatypes""><Description dt:dt=""string"">E-Prime Primary Realtime Clock</Description><StartTime><Timestamp dt:dt=""int"">0</Timestamp><DateUtc dt:dt=""string"">2019-10-16T15:05:15Z</DateUtc></StartTime><FrequencyChanges><FrequencyChange><Frequency dt:dt=""r8"">10000000</Frequency><Timestamp dt:dt=""r8"">4351956175159</Timestamp><Current dt:dt=""r8"">0</Current><DateUtc dt:dt=""string"">2019-10-16T15:05:15Z</DateUtc></FrequencyChange></FrequencyChanges></Clock>\n",Shipley-102-2,60,1.0.0.45,1,1156275908,Professional,2.0.10.356,2.0.10.356,10/16/2019,10/16/2019 15:05,11:05:15,2.0.10.252,0,,5,20884,28185,1,3,draw,sleep,1,1,1,trialProc,List1,eat,1,3,-999999,14,33367,0,3,3922,37289,speak,1),TALK
Shipley,102,Younger,2,"<?xml version=""1.0""?>\n<Clock xmlns:dt=""urn:schemas-microsoft-com:datatypes""><Description dt:dt=""string"">E-Prime Primary Realtime Clock</Description><StartTime><Timestamp dt:dt=""int"">0</Timestamp><DateUtc dt:dt=""string"">2019-10-16T15:05:15Z</DateUtc></StartTime><FrequencyChanges><FrequencyChange><Frequency dt:dt=""r8"">10000000</Frequency><Timestamp dt:dt=""r8"">4351956175159</Timestamp><Current dt:dt=""r8"">0</Current><DateUtc dt:dt=""string"">2019-10-16T15:05:15Z</DateUtc></FrequencyChange></FrequencyChanges></Clock>\n",Shipley-102-2,60,1.0.0.45,1,1156275908,Professional,2.0.10.356,2.0.10.356,10/16/2019,10/16/2019 15:05,11:05:15,2.0.10.252,0,,5,20884,28185,2,1,allow,drive,2,1,2,trialProc,List1,sew,1,1,-999999,12,37301,0,1,2036,39337,cut,2),PERMIT
Shipley,102,Younger,2,"<?xml version=""1.0""?>\n<Clock xmlns:dt=""urn:schemas-microsoft-com:datatypes""><Description dt:dt=""string"">E-Prime Primary Realtime Clock</Description><StartTime><Timestamp dt:dt=""int"">0</Timestamp><DateUtc dt:dt=""string"">2019-10-16T15:05:15Z</DateUtc></StartTime><FrequencyChanges><FrequencyChange><Frequency dt:dt=""r8"">10000000</Frequency><Timestamp dt:dt=""r8"">4351956175159</Timestamp><Current dt:dt=""r8"">0</Current><DateUtc dt:dt=""string"">2019-10-16T15:05:15Z</DateUtc></FrequencyChange></FrequencyChanges></Clock>\n",Shipley-102-2,60,1.0.0.45,1,1156275908,Professional,2.0.10.356,2.0.10.356,10/16/2019,10/16/2019 15:05,11:05:15,2.0.10.252,0,,5,20884,28185,3,1,forgive,tell,3,1,3,trialProc,List1,pount,1,1,-999999,14,39351,0,1,3138,42489,divide,3),PARDON
Shipley,102,Younger,2,"<?xml version=""1.0""?>\n<Clock xmlns:dt=""urn:schemas-microsoft-com:datatypes""><Description dt:dt=""string"">E-Prime Primary Realtime Clock</Description><StartTime><Timestamp dt:dt=""int"">0</Timestamp><DateUtc dt:dt=""string"">2019-10-16T15:05:15Z</DateUtc></StartTime><FrequencyChanges><FrequencyChange><Frequency dt:dt=""r8"">10000000</Frequency><Timestamp dt:dt=""r8"">4351956175159</Timestamp><Current dt:dt=""r8"">0</Current><DateUtc dt:dt=""string"">2019-10-16T15:05:15Z</DateUtc></FrequencyChange></FrequencyChanges></Clock>\n",Shipley-102-2,60,1.0.0.45,1,1156275908,Professional,2.0.10.356,2.0.10.356,10/16/2019,10/16/2019 15:05,11:05:15,2.0.10.252,0,,5,20884,28185,4,3,pin,glass,4,1,4,trialProc,List1,eraser,1,3,-999999,12,42501,0,3,2308,44809,sofa,4),COUCH
Shipley,102,Younger,2,"<?xml version=""1.0""?>\n<Clock xmlns:dt=""urn:schemas-microsoft-com:datatypes""><Description dt:dt=""string"">E-Prime Primary Realtime Clock</Description><StartTime><Timestamp dt:dt=""int"">0</Timestamp><DateUtc dt:dt=""string"">2019-10-16T15:05:15Z</DateUtc></StartTime><FrequencyChanges><FrequencyChange><Frequency dt:dt=""r8"">10000000</Frequency><Timestamp dt:dt=""r8"">4351956175159</Timestamp><Current dt:dt=""r8"">0</Current><DateUtc dt:dt=""string"">2019-10-16T15:05:15Z</DateUtc></FrequencyChange></FrequencyChanges></Clock>\n",Shipley-102-2,60,1.0.0.45,1,1156275908,Professional,2.0.10.356,2.0.10.356,10/16/2019,10/16/2019 15:05,11:05:15,2.0.10.252,0,,5,20884,28185,5,2,swim,defy,5,1,5,trialProc,List1,recall,1,2,-999999,25,44834,0,2,1879,46713,number,5),REMEMBER
Shipley,102,Younger,2,"<?xml version=""1.0""?>\n<Clock xmlns:dt=""urn:schemas-microsoft-com:datatypes""><Description dt:dt=""string"">E-Prime Primary Realtime Clock</Description><StartTime><Timestamp dt:dt=""int"">0</Timestamp><DateUtc dt:dt=""string"">2019-10-16T15:05:15Z</DateUtc></StartTime><FrequencyChanges><FrequencyChange><Frequency dt:dt=""r8"">10000000</Frequency><Timestamp dt:dt=""r8"">4351956175159</Timestamp><Current dt:dt=""r8"">0</Current><DateUtc dt:dt=""string"">2019-10-16T15:05:15Z</DateUtc></FrequencyChange></FrequencyChanges></Clock>\n",Shipley-102-2,60,1.0.0.45,1,1156275908,Professional,2.0.10.356,2.0.10.356,10/16/2019,10/16/2019 15:05,11:05:15,2.0.10.252,0,,5,20884,28185,6,3,drink,think,6,1,6,trialProc,List1,dress,1,3,-999999,21,46734,0,3,2043,48777,fall,6),TUMBLE
Shipley,102,Younger,2,"<?xml version=""1.0""?>\n<Clock xmlns:dt=""urn:schemas-microsoft-com:datatypes""><Description dt:dt=""string"">E-Prime Primary Realtime Clock</Description><StartTime><Timestamp dt:dt=""int"">0</Timestamp><DateUtc dt:dt=""string"">2019-10-16T15:05:15Z</DateUtc></StartTime><FrequencyChanges><FrequencyChange><Frequency dt:dt=""r8"">10000000</Frequency><Timestamp dt:dt=""r8"">4351956175159</Timestamp><Current dt:dt=""r8"">0</Current><DateUtc dt:dt=""string"">2019-10-16T15:05:15Z</DateUtc></FrequencyChange></FrequencyChanges></Clock>\n",Shipley-102-2,60,1.0.0.45,1,1156275908,Professional,2.0.10.356,2.0.10.356,10/16/2019,10/16/2019 15:05,11:05:15,2.0.10.252,0,,5,20884,28185,7,4,silvery,dreadful,7,1,7,trialProc,List1,tilted,1,4,-999999,24,48801,0,4,7944,56745,young,7),HIDEOUS
Shipley,102,Younger,2,"<?xml version=""1.0""?>\n<Clock xmlns:dt=""urn:schemas-microsoft-com:datatypes""><Description dt:dt=""string"">E-Prime Primary Realtime Clock</Description><StartTime><Timestamp dt:dt=""int"">0</Timestamp><DateUtc dt:dt=""string"">2019-10-16T15:05:15Z</DateUtc></StartTime><FrequencyChanges><FrequencyChange><Frequency dt:dt=""r8"">10000000</Frequency><Timestamp dt:dt=""r8"">4351956175159</Timestamp><Current dt:dt=""r8"">0</Current><DateUtc dt:dt=""string"">2019-10-16T15:05:15Z</DateUtc></FrequencyChange></FrequencyChanges></Clock>\n",Shipley-102-2,60,1.0.0.45,1,1156275908,Professional,2.0.10.356,2.0.10.356,10/16/2019,10/16/2019 15:05,11:05:15,2.0.10.252,0,,5,20884,28185,8,4,swift,hearty,8,1,8,trialProc,List1,muddy,1,4,-999999,22,56767,0,4,4778,61545,leafy,8),CORDIAL
Shipley,102,Younger,2,"<?xml version=""1.0""?>\n<Clock xmlns:dt=""urn:schemas-microsoft-com:datatypes""><Description dt:dt=""string"">E-Prime Primary Realtime Clock</Description><StartTime><Timestamp dt:dt=""int"">0</Timestamp><DateUtc dt:dt=""string"">2019-10-16T15:05:15Z</DateUtc></StartTime><FrequencyChanges><FrequencyChange><Frequency dt:dt=""r8"">10000000</Frequency><Timestamp dt:dt=""r8"">4351956175159</Timestamp><Current dt:dt=""r8"">0</Current><DateUtc dt:dt=""string"">2019-10-16T15:05:15Z</DateUtc></FrequencyChange></FrequencyChanges></Clock>\n",Shipley-102-2,60,1.0.0.45,1,1156275908,Professional,2.0.10.356,2.0.10.356,10/16/2019,10/16/2019 15:05,11:05:15,2.0.10.252,0,,5,20884,28185,9,2,green,afraid,9,1,9,trialProc,List1,obvious,1,2,-999999,22,61567,0,2,3642,65209,skeptical,9),EVIDENT
Shipley,102,Younger,2,"<?xml version=""1.0""?>\n<Clock xmlns:dt=""urn:schemas-microsoft-com:datatypes""><Description dt:dt=""string"">E-Prime Primary Realtime Clock</Description><StartTime><Timestamp dt:dt=""int"">0</Timestamp><DateUtc dt:dt=""string"">2019-10-16T15:05:15Z</DateUtc></StartTime><FrequencyChanges><FrequencyChange><Frequency dt:dt=""r8"">10000000</Frequency><Timestamp dt:dt=""r8"">4351956175159</Timestamp><Current dt:dt=""r8"">0</Current><DateUtc dt:dt=""string"">2019-10-16T15:05:15Z</DateUtc></FrequencyChange></FrequencyChanges></Clock>\n",Shipley-102-2,60,1.0.0.45,1,1156275908,Professional,2.0.10.356,2.0.10.356,10/16/2019,10/16/2019 15:05,11:05:15,2.0.10.252,0,,5,20884,28185,10,4,conductor,pretender,10,1,10,trialProc,List1,officer,1,4,-999999,25,65234,0,4,2919,68153,book,10),IMPOSTOR
Shipley,102,Younger,2,"<?xml version=""1.0""?>\n<Clock xmlns:dt=""urn:schemas-microsoft-com:datatypes""><Description dt:dt=""string"">E-Prime Primary Realtime Clock</Description><StartTime><Timestamp dt:dt=""int"">0</Timestamp><DateUtc dt:dt=""string"">2019-10-16T15:05:15Z</DateUtc></StartTime><FrequencyChanges><FrequencyChange><Frequency dt:dt=""r8"">10000000</Frequency><Timestamp dt:dt=""r8"">4351956175159</Timestamp><Current dt:dt=""r8"">0</Current><DateUtc dt:dt=""string"">2019-10-16T15:05:15Z</DateUtc></FrequencyChange></FrequencyChanges></Clock>\n",Shipley-102-2,60,1.0.0.45,1,1156275908,Professional,2.0.10.356,2.0.10.356,10/16/2019,10/16/2019 15:05,11:05:15,2.0.10.252,0,,5,20884,28185,11,1,deserve,separate,11,1,11,trialProc,List1,distrust,1,1,-999999,14,68167,0,1,3250,71417,fight,11),MERIT
Shipley,102,Younger,2,"<?xml version=""1.0""?>\n<Clock xmlns:dt=""urn:schemas-microsoft-com:datatypes""><Description dt:dt=""string"">E-Prime Primary Realtime Clock</Description><StartTime><Timestamp dt:dt=""int"">0</Timestamp><DateUtc dt:dt=""string"">2019-10-16T15:05:15Z</DateUtc></StartTime><FrequencyChanges><FrequencyChange><Frequency dt:dt=""r8"">10000000</Frequency><Timestamp dt:dt=""r8"">4351956175159</Timestamp><Current dt:dt=""r8"">0</Current><DateUtc dt:dt=""string"">2019-10-16T15:05:15Z</DateUtc></FrequencyChange></FrequencyChanges></Clock>\n",Shipley-102-2,60,1.0.0.45,1,1156275908,Professional,2.0.10.356,2.0.10.356,10/16/2019,10/16/2019 15:05,11:05:15,2.0.10.252,0,,5,20884,28185,12,4,welcome,enchant,12,1,12,trialProc,List1,fix,1,4,-999999,17,71434,0,4,3791,75225,stir,12),FASCINATE
Shipley,102,Younger,2,"<?xml version=""1.0""?>\n<Clock xmlns:dt=""urn:schemas-microsoft-com:datatypes""><Description dt:dt=""string"">E-Prime Primary Realtime Clock</Description><StartTime><Timestamp dt:dt=""int"">0</Timestamp><DateUtc dt:dt=""string"">2019-10-16T15:05:15Z</DateUtc></StartTime><FrequencyChanges><FrequencyChange><Frequency dt:dt=""r8"">10000000</Frequency><Timestamp dt:dt=""r8"">4351956175159</Timestamp><Current dt:dt=""r8"">0</Current><DateUtc dt:dt=""string"">2019-10-16T15:05:15Z</DateUtc></FrequencyChange></FrequencyChanges></Clock>\n",Shipley-102-2,60,1.0.0.45,1,1156275908,Professional,2.0.10.356,2.0.10.356,10/16/2019,10/16/2019 15:05,11:05:15,2.0.10.252,0,,5,20884,28185,13,3,defy,bicker,13,1,13,trialProc,List1,excite,1,3,-999999,26,75251,0,3,2934,78185,signify,13),INDICATE
Shipley,102,Younger,2,"<?xml version=""1.0""?>\n<Clock xmlns:dt=""urn:schemas-microsoft-com:datatypes""><Description dt:dt=""string"">E-Prime Primary Realtime Clock</Description><StartTime><Timestamp dt:dt=""int"">0</Timestamp><DateUtc dt:dt=""string"">2019-10-16T15:05:15Z</DateUtc></StartTime><FrequencyChanges><FrequencyChange><Frequency dt:dt=""r8"">10000000</Frequency><Timestamp dt:dt=""r8"">4351956175159</Timestamp><Current dt:dt=""r8"">0</Current><DateUtc dt:dt=""string"">2019-10-16T15:05:15Z</DateUtc></FrequencyChange></FrequencyChanges></Clock>\n",Shipley-102-2,60,1.0.0.45,1,1156275908,Professional,2.0.10.356,2.0.10.356,10/16/2019,10/16/2019 15:05,11:05:15,2.0.10.252,0,,5,20884,28185,14,3,red,precise,14,1,14,trialProc,List1,sharp,1,3,-999999,16,78201,0,3,2912,81113,uninformed,14),IGNORANT
Shipley,102,Younger,2,"<?xml version=""1.0""?>\n<Clock xmlns:dt=""urn:schemas-microsoft-com:datatypes""><Description dt:dt=""string"">E-Prime Primary Realtime Clock</Description><StartTime><Timestamp dt:dt=""int"">0</Timestamp><DateUtc dt:dt=""string"">2019-10-16T15:05:15Z</DateUtc></StartTime><FrequencyChanges><FrequencyChange><Frequency dt:dt=""r8"">10000000</Frequency><Timestamp dt:dt=""r8"">4351956175159</Timestamp><Current dt:dt=""r8"">0</Current><DateUtc dt:dt=""string"">2019-10-16T15:05:15Z</DateUtc></FrequencyChange></FrequencyChanges></Clock>\n",Shipley-102-2,60,1.0.0.45,1,1156275908,Professional,2.0.10.356,2.0.10.356,10/16/2019,10/16/2019 15:05,11:05:15,2.0.10.252,0,,5,20884,28185,15,2,submerge,deaden,15,1,15,trialProc,List1,strengthen,1,2,-999999,21,81134,0,2,2235,83369,vent,15),FORTIFY
Shipley,102,Younger,2,"<?xml version=""1.0""?>\n<Clock xmlns:dt=""urn:schemas-microsoft-com:datatypes""><Description dt:dt=""string"">E-Prime Primary Realtime Clock</Description><StartTime><Timestamp dt:dt=""int"">0</Timestamp><DateUtc dt:dt=""string"">2019-10-16T15:05:15Z</DateUtc></StartTime><FrequencyChanges><FrequencyChange><Frequency dt:dt=""r8"">10000000</Frequency><Timestamp dt:dt=""r8"">4351956175159</Timestamp><Current dt:dt=""r8"">0</Current><DateUtc dt:dt=""string"">2019-10-16T15:05:15Z</DateUtc></FrequencyChange></FrequencyChanges></Clock>\n",Shipley-102-2,60,1.0.0.45,1,1156275908,Professional,2.0.10.356,2.0.10.356,10/16/2019,10/16/2019 15:05,11:05:15,2.0.10.252,0,,5,20884,28185,16,3,length,loyalty,16,1,16,trialProc,List1,head,1,3,-999999,15,83384,0,3,6001,89385,fame,16),RENOWN
Shipley,102,Younger,2,"<?xml version=""1.0""?>\n<Clock xmlns:dt=""urn:schemas-microsoft-com:datatypes""><Description dt:dt=""string"">E-Prime Primary Realtime Clock</Description><StartTime><Timestamp dt:dt=""int"">0</Timestamp><DateUtc dt:dt=""string"">2019-10-16T15:05:15Z</DateUtc></StartTime><FrequencyChanges><FrequencyChange><Frequency dt:dt=""r8"">10000000</Frequency><Timestamp dt:dt=""r8"">4351956175159</Timestamp><Current dt:dt=""r8"">0</Current><DateUtc dt:dt=""string"">2019-10-16T15:05:15Z</DateUtc></FrequencyChange></FrequencyChanges></Clock>\n",Shipley-102-2,60,1.0.0.45,1,1156275908,Professional,2.0.10.356,2.0.10.356,10/16/2019,10/16/2019 15:05,11:05:15,2.0.10.252,0,,5,20884,28185,17,4,yield,tell,17,1,17,trialProc,List1,buy,1,4,-999999,16,89401,0,4,2288,91689,associate,17),NARRATE
Shipley,102,Younger,2,"<?xml version=""1.0""?>\n<Clock xmlns:dt=""urn:schemas-microsoft-com:datatypes""><Description dt:dt=""string"">E-Prime Primary Realtime Clock</Description><StartTime><Timestamp dt:dt=""int"">0</Timestamp><DateUtc dt:dt=""string"">2019-10-16T15:05:15Z</DateUtc></StartTime><FrequencyChanges><FrequencyChange><Frequency dt:dt=""r8"">10000000</Frequency><Timestamp dt:dt=""r8"">4351956175159</Timestamp><Current dt:dt=""r8"">0</Current><DateUtc dt:dt=""string"">2019-10-16T15:05:15Z</DateUtc></FrequencyChange></FrequencyChanges></Clock>\n",Shipley-102-2,60,1.0.0.45,1,1156275908,Professional,2.0.10.356,2.0.10.356,10/16/2019,10/16/2019 15:05,11:05:15,2.0.10.252,0,,5,20884,28185,18,2,bright,low,18,1,18,trialProc,List1,large,1,2,-999999,12,91701,0,2,2900,94601,speedy,18),MASSIVE
Shipley,102,Younger,2,"<?xml version=""1.0""?>\n<Clock xmlns:dt=""urn:schemas-microsoft-com:datatypes""><Description dt:dt=""string"">E-Prime Primary Realtime Clock</Description><StartTime><Timestamp dt:dt=""int"">0</Timestamp><DateUtc dt:dt=""string"">2019-10-16T15:05:15Z</DateUtc></StartTime><FrequencyChanges><FrequencyChange><Frequency dt:dt=""r8"">10000000</Frequency><Timestamp dt:dt=""r8"">4351956175159</Timestamp><Current dt:dt=""r8"">0</Current><DateUtc dt:dt=""string"">2019-10-16T15:05:15Z</DateUtc></FrequencyChange></FrequencyChanges></Clock>\n",Shipley-102-2,60,1.0.0.45,1,1156275908,Professional,2.0.10.356,2.0.10.356,10/16/2019,10/16/2019 15:05,11:05:15,2.0.10.252,0,,5,20884,28185,19,1,laughter,malice,19,1,19,trialProc,List1,speed,1,1,-999999,16,94617,0,1,2272,96889,grace,19),HILARITY
Shipley,102,Younger,2,"<?xml version=""1.0""?>\n<Clock xmlns:dt=""urn:schemas-microsoft-com:datatypes""><Description dt:dt=""string"">E-Prime Primary Realtime Clock</Description><StartTime><Timestamp dt:dt=""int"">0</Timestamp><DateUtc dt:dt=""string"">2019-10-16T15:05:15Z</DateUtc></StartTime><FrequencyChanges><FrequencyChange><Frequency dt:dt=""r8"">10000000</Frequency><Timestamp dt:dt=""r8"">4351956175159</Timestamp><Current dt:dt=""r8"">0</Current><DateUtc dt:dt=""string"">2019-10-16T15:05:15Z</DateUtc></FrequencyChange></FrequencyChanges></Clock>\n",Shipley-102-2,60,1.0.0.45,1,1156275908,Professional,2.0.10.356,2.0.10.356,10/16/2019,10/16/2019 15:05,11:05:15,2.0.10.252,0,,5,20884,28185,20,4,stolen,soiled,20,1,20,trialProc,List1,pointed,1,4,-999999,12,96901,0,4,4644,101545,remade,20),SMIRCHED
Shipley,102,Younger,2,"<?xml version=""1.0""?>\n<Clock xmlns:dt=""urn:schemas-microsoft-com:datatypes""><Description dt:dt=""string"">E-Prime Primary Realtime Clock</Description><StartTime><Timestamp dt:dt=""int"">0</Timestamp><DateUtc dt:dt=""string"">2019-10-16T15:05:15Z</DateUtc></StartTime><FrequencyChanges><FrequencyChange><Frequency dt:dt=""r8"">10000000</Frequency><Timestamp dt:dt=""r8"">4351956175159</Timestamp><Current dt:dt=""r8"">0</Current><DateUtc dt:dt=""string"">2019-10-16T15:05:15Z</DateUtc></FrequencyChange></FrequencyChanges></Clock>\n",Shipley-102-2,60,1.0.0.45,1,1156275908,Professional,2.0.10.356,2.0.10.356,10/16/2019,10/16/2019 15:05,11:05:15,2.0.10.252,0,,5,20884,28185,21,4,tease,waste,21,1,21,trialProc,List1,belittle,1,4,-999999,22,101567,0,4,2730,104297,cut,21),SQUANDER
Shipley,102,Younger,2,"<?xml version=""1.0""?>\n<Clock xmlns:dt=""urn:schemas-microsoft-com:datatypes""><Description dt:dt=""string"">E-Prime Primary Realtime Clock</Description><StartTime><Timestamp dt:dt=""int"">0</Timestamp><DateUtc dt:dt=""string"">2019-10-16T15:05:15Z</DateUtc></StartTime><FrequencyChanges><FrequencyChange><Frequency dt:dt=""r8"">10000000</Frequency><Timestamp dt:dt=""r8"">4351956175159</Timestamp><Current dt:dt=""r8"">0</Current><DateUtc dt:dt=""string"">2019-10-16T15:05:15Z</DateUtc></FrequencyChange></FrequencyChanges></Clock>\n",Shipley-102-2,60,1.0.0.45,1,1156275908,Professional,2.0.10.356,2.0.10.356,10/16/2019,10/16/2019 15:05,11:05:15,2.0.10.252,0,,5,20884,28185,22,3,drum,ape,22,1,22,trialProc,List1,ballast,1,3,-999999,20,104317,0,3,3276,107593,heading,22),CAPTION
Shipley,102,Younger,2,"<?xml version=""1.0""?>\n<Clock xmlns:dt=""urn:schemas-microsoft-com:datatypes""><Description dt:dt=""string"">E-Prime Primary Realtime Clock</Description><StartTime><Timestamp dt:dt=""int"">0</Timestamp><DateUtc dt:dt=""string"">2019-10-16T15:05:15Z</DateUtc></StartTime><FrequencyChanges><FrequencyChange><Frequency dt:dt=""r8"">10000000</Frequency><Timestamp dt:dt=""r8"">4351956175159</Timestamp><Current dt:dt=""r8"">0</Current><DateUtc dt:dt=""string"">2019-10-16T15:05:15Z</DateUtc></FrequencyChange></FrequencyChanges></Clock>\n",Shipley-102-2,60,1.0.0.45,1,1156275908,Professional,2.0.10.356,2.0.10.356,10/16/2019,10/16/2019 15:05,11:05:15,2.0.10.252,0,,5,20884,28185,23,1,help,bewilder,23,1,23,trialProc,List1,turn,1,1,-999999,24,107617,0,1,2456,110073,strip,23),FACILITATE
Shipley,102,Younger,2,"<?xml version=""1.0""?>\n<Clock xmlns:dt=""urn:schemas-microsoft-com:datatypes""><Description dt:dt=""string"">E-Prime Primary Realtime Clock</Description><StartTime><Timestamp dt:dt=""int"">0</Timestamp><DateUtc dt:dt=""string"">2019-10-16T15:05:15Z</DateUtc></StartTime><FrequencyChanges><FrequencyChange><Frequency dt:dt=""r8"">10000000</Frequency><Timestamp dt:dt=""r8"">4351956175159</Timestamp><Current dt:dt=""r8"">0</Current><DateUtc dt:dt=""string"">2019-10-16T15:05:15Z</DateUtc></FrequencyChange></FrequencyChanges></Clock>\n",Shipley-102-2,60,1.0.0.45,1,1156275908,Professional,2.0.10.356,2.0.10.356,10/16/2019,10/16/2019 15:05,11:05:15,2.0.10.252,0,,5,20884,28185,24,1,humorous,plain,24,1,24,trialProc,List1,paltry,1,1,-999999,11,110084,0,1,2597,112681,fervid,24),JOCOSE
Shipley,102,Younger,2,"<?xml version=""1.0""?>\n<Clock xmlns:dt=""urn:schemas-microsoft-com:datatypes""><Description dt:dt=""string"">E-Prime Primary Realtime Clock</Description><StartTime><Timestamp dt:dt=""int"">0</Timestamp><DateUtc dt:dt=""string"">2019-10-16T15:05:15Z</DateUtc></StartTime><FrequencyChanges><FrequencyChange><Frequency dt:dt=""r8"">10000000</Frequency><Timestamp dt:dt=""r8"">4351956175159</Timestamp><Current dt:dt=""r8"">0</Current><DateUtc dt:dt=""string"">2019-10-16T15:05:15Z</DateUtc></FrequencyChange></FrequencyChanges></Clock>\n",Shipley-102-2,60,1.0.0.45,1,1156275908,Professional,2.0.10.356,2.0.10.356,10/16/2019,10/16/2019 15:05,11:05:15,2.0.10.252,0,,5,20884,28185,25,3,reduce,delight,25,1,25,trialProc,List1,strew,1,3,-999999,20,112701,0,3,3180,115881,inform,25),APPRISE
Shipley,102,Younger,2,"<?xml version=""1.0""?>\n<Clock xmlns:dt=""urn:schemas-microsoft-com:datatypes""><Description dt:dt=""string"">E-Prime Primary Realtime Clock</Description><StartTime><Timestamp dt:dt=""int"">0</Timestamp><DateUtc dt:dt=""string"">2019-10-16T15:05:15Z</DateUtc></StartTime><FrequencyChanges><FrequencyChange><Frequency dt:dt=""r8"">10000000</Frequency><Timestamp dt:dt=""r8"">4351956175159</Timestamp><Current dt:dt=""r8"">0</Current><DateUtc dt:dt=""string"">2019-10-16T15:05:15Z</DateUtc></FrequencyChange></FrequencyChanges></Clock>\n",Shipley-102-2,60,1.0.0.45,1,1156275908,Professional,2.0.10.356,2.0.10.356,10/16/2019,10/16/2019 15:05,11:05:15,2.0.10.252,0,,5,20884,28185,26,2,eat,cure,26,1,26,trialProc,List1,lament,1,2,-999999,20,115901,0,2,2380,118281,dominate,26),RUE
Shipley,102,Younger,2,"<?xml version=""1.0""?>\n<Clock xmlns:dt=""urn:schemas-microsoft-com:datatypes""><Description dt:dt=""string"">E-Prime Primary Realtime Clock</Description><StartTime><Timestamp dt:dt=""int"">0</Timestamp><DateUtc dt:dt=""string"">2019-10-16T15:05:15Z</DateUtc></StartTime><FrequencyChanges><FrequencyChange><Frequency dt:dt=""r8"">10000000</Frequency><Timestamp dt:dt=""r8"">4351956175159</Timestamp><Current dt:dt=""r8"">0</Current><DateUtc dt:dt=""string"">2019-10-16T15:05:15Z</DateUtc></FrequencyChange></FrequencyChanges></Clock>\n",Shipley-102-2,60,1.0.0.45,1,1156275908,Professional,2.0.10.356,2.0.10.356,10/16/2019,10/16/2019 15:05,11:05:15,2.0.10.252,0,,5,20884,28185,27,2,senator,atom,27,1,27,trialProc,List1,inhabitant,1,2,-999999,20,118301,0,2,7564,125865,fish,27),DENIZEN
Shipley,102,Younger,2,"<?xml version=""1.0""?>\n<Clock xmlns:dt=""urn:schemas-microsoft-com:datatypes""><Description dt:dt=""string"">E-Prime Primary Realtime Clock</Description><StartTime><Timestamp dt:dt=""int"">0</Timestamp><DateUtc dt:dt=""string"">2019-10-16T15:05:15Z</DateUtc></StartTime><FrequencyChanges><FrequencyChange><Frequency dt:dt=""r8"">10000000</Frequency><Timestamp dt:dt=""r8"">4351956175159</Timestamp><Current dt:dt=""r8"">0</Current><DateUtc dt:dt=""string"">2019-10-16T15:05:15Z</DateUtc></FrequencyChange></FrequencyChanges></Clock>\n",Shipley-102-2,60,1.0.0.45,1,1156275908,Professional,2.0.10.356,2.0.10.356,10/16/2019,10/16/2019 15:05,11:05:15,2.0.10.252,0,,5,20884,28185,28,1,dispossess,pledge,28,1,28,trialProc,List1,intrude,1,1,-999999,19,125884,0,1,8957,134841,rally,28),DIVEST
Shipley,102,Younger,2,"<?xml version=""1.0""?>\n<Clock xmlns:dt=""urn:schemas-microsoft-com:datatypes""><Description dt:dt=""string"">E-Prime Primary Realtime Clock</Description><StartTime><Timestamp dt:dt=""int"">0</Timestamp><DateUtc dt:dt=""string"">2019-10-16T15:05:15Z</DateUtc></StartTime><FrequencyChanges><FrequencyChange><Frequency dt:dt=""r8"">10000000</Frequency><Timestamp dt:dt=""r8"">4351956175159</Timestamp><Current dt:dt=""r8"">0</Current><DateUtc dt:dt=""string"">2019-10-16T15:05:15Z</DateUtc></FrequencyChange></FrequencyChanges></Clock>\n",Shipley-102-2,60,1.0.0.45,1,1156275908,Professional,2.0.10.356,2.0.10.356,10/16/2019,10/16/2019 15:05,11:05:15,2.0.10.252,0,,5,20884,28185,29,1,charm,pong,29,1,29,trialProc,List1,orphan,1,1,-999999,26,134867,0,1,2102,136969,dingo,29),AMULET
Shipley,102,Younger,2,"<?xml version=""1.0""?>\n<Clock xmlns:dt=""urn:schemas-microsoft-com:datatypes""><Description dt:dt=""string"">E-Prime Primary Realtime Clock</Description><StartTime><Timestamp dt:dt=""int"">0</Timestamp><DateUtc dt:dt=""string"">2019-10-16T15:05:15Z</DateUtc></StartTime><FrequencyChanges><FrequencyChange><Frequency dt:dt=""r8"">10000000</Frequency><Timestamp dt:dt=""r8"">4351956175159</Timestamp><Current dt:dt=""r8"">0</Current><DateUtc dt:dt=""string"">2019-10-16T15:05:15Z</DateUtc></FrequencyChange></FrequencyChanges></Clock>\n",Shipley-102-2,60,1.0.0.45,1,1156275908,Professional,2.0.10.356,2.0.10.356,10/16/2019,10/16/2019 15:05,11:05:15,2.0.10.252,0,,5,20884,28185,30,3,untidy,sparse,30,1,30,trialProc,List1,involatile,0,3,-999999,15,136984,0,4,9281,146265,rigid,30),INEXORABLE
Shipley,102,Younger,2,"<?xml version=""1.0""?>\n<Clock xmlns:dt=""urn:schemas-microsoft-com:datatypes""><Description dt:dt=""string"">E-Prime Primary Realtime Clock</Description><StartTime><Timestamp dt:dt=""int"">0</Timestamp><DateUtc dt:dt=""string"">2019-10-16T15:05:15Z</DateUtc></StartTime><FrequencyChanges><FrequencyChange><Frequency dt:dt=""r8"">10000000</Frequency><Timestamp dt:dt=""r8"">4351956175159</Timestamp><Current dt:dt=""r8"">0</Current><DateUtc dt:dt=""string"">2019-10-16T15:05:15Z</DateUtc></FrequencyChange></FrequencyChanges></Clock>\n",Shipley-102-2,60,1.0.0.45,1,1156275908,Professional,2.0.10.356,2.0.10.356,10/16/2019,10/16/2019 15:05,11:05:15,2.0.10.252,0,,5,20884,28185,31,2,dried,blunt,31,1,31,trialProc,List1,notched,1,2,-999999,19,146284,0,2,4397,150681,armed,31),SERRATED
Shipley,102,Younger,2,"<?xml version=""1.0""?>\n<Clock xmlns:dt=""urn:schemas-microsoft-com:datatypes""><Description dt:dt=""string"">E-Prime Primary Realtime Clock</Description><StartTime><Timestamp dt:dt=""int"">0</Timestamp><DateUtc dt:dt=""string"">2019-10-16T15:05:15Z</DateUtc></StartTime><FrequencyChanges><FrequencyChange><Frequency dt:dt=""r8"">10000000</Frequency><Timestamp dt:dt=""r8"">4351956175159</Timestamp><Current dt:dt=""r8"">0</Current><DateUtc dt:dt=""string"">2019-10-16T15:05:15Z</DateUtc></FrequencyChange></FrequencyChanges></Clock>\n",Shipley-102-2,60,1.0.0.45,1,1156275908,Professional,2.0.10.356,2.0.10.356,10/16/2019,10/16/2019 15:05,11:05:15,2.0.10.252,0,,5,20884,28185,32,3,moldy,convex,32,1,32,trialProc,List1,loose,0,3,-999999,20,150701,0,4,8316,159017,supple,32),LISSOM
Shipley,102,Younger,2,"<?xml version=""1.0""?>\n<Clock xmlns:dt=""urn:schemas-microsoft-com:datatypes""><Description dt:dt=""string"">E-Prime Primary Realtime Clock</Description><StartTime><Timestamp dt:dt=""int"">0</Timestamp><DateUtc dt:dt=""string"">2019-10-16T15:05:15Z</DateUtc></StartTime><FrequencyChanges><FrequencyChange><Frequency dt:dt=""r8"">10000000</Frequency><Timestamp dt:dt=""r8"">4351956175159</Timestamp><Current dt:dt=""r8"">0</Current><DateUtc dt:dt=""string"">2019-10-16T15:05:15Z</DateUtc></FrequencyChange></FrequencyChanges></Clock>\n",Shipley-102-2,60,1.0.0.45,1,1156275908,Professional,2.0.10.356,2.0.10.356,10/16/2019,10/16/2019 15:05,11:05:15,2.0.10.252,0,,5,20884,28185,33,1,mitigate,abuse,33,1,33,trialProc,List1,direct,0,1,-999999,17,159034,0,3,9631,168665,pertain,33),MOLLIFY
Shipley,102,Younger,2,"<?xml version=""1.0""?>\n<Clock xmlns:dt=""urn:schemas-microsoft-com:datatypes""><Description dt:dt=""string"">E-Prime Primary Realtime Clock</Description><StartTime><Timestamp dt:dt=""int"">0</Timestamp><DateUtc dt:dt=""string"">2019-10-16T15:05:15Z</DateUtc></StartTime><FrequencyChanges><FrequencyChange><Frequency dt:dt=""r8"">10000000</Frequency><Timestamp dt:dt=""r8"">4351956175159</Timestamp><Current dt:dt=""r8"">0</Current><DateUtc dt:dt=""string"">2019-10-16T15:05:15Z</DateUtc></FrequencyChange></FrequencyChanges></Clock>\n",Shipley-102-2,60,1.0.0.45,1,1156275908,Professional,2.0.10.356,2.0.10.356,10/16/2019,10/16/2019 15:05,11:05:15,2.0.10.252,0,,5,20884,28185,34,1,appropriate,maintain,34,1,34,trialProc,List1,intend,0,1,-999999,19,168684,0,2,9309,177993,revoke,34),PLAGIARIZE
Shipley,102,Younger,2,"<?xml version=""1.0""?>\n<Clock xmlns:dt=""urn:schemas-microsoft-com:datatypes""><Description dt:dt=""string"">E-Prime Primary Realtime Clock</Description><StartTime><Timestamp dt:dt=""int"">0</Timestamp><DateUtc dt:dt=""string"">2019-10-16T15:05:15Z</DateUtc></StartTime><FrequencyChanges><FrequencyChange><Frequency dt:dt=""r8"">10000000</Frequency><Timestamp dt:dt=""r8"">4351956175159</Timestamp><Current dt:dt=""r8"">0</Current><DateUtc dt:dt=""string"">2019-10-16T15:05:15Z</DateUtc></FrequencyChange></FrequencyChanges></Clock>\n",Shipley-102-2,60,1.0.0.45,1,1156275908,Professional,2.0.10.356,2.0.10.356,10/16/2019,10/16/2019 15:05,11:05:15,2.0.10.252,0,,5,20884,28185,35,2,brush,lute,35,1,35,trialProc,List1,hole,1,2,-999999,24,178017,0,2,2024,180041,building,35),ORIFICE
Shipley,102,Younger,2,"<?xml version=""1.0""?>\n<Clock xmlns:dt=""urn:schemas-microsoft-com:datatypes""><Description dt:dt=""string"">E-Prime Primary Realtime Clock</Description><StartTime><Timestamp dt:dt=""int"">0</Timestamp><DateUtc dt:dt=""string"">2019-10-16T15:05:15Z</DateUtc></StartTime><FrequencyChanges><FrequencyChange><Frequency dt:dt=""r8"">10000000</Frequency><Timestamp dt:dt=""r8"">4351956175159</Timestamp><Current dt:dt=""r8"">0</Current><DateUtc dt:dt=""string"">2019-10-16T15:05:15Z</DateUtc></FrequencyChange></FrequencyChanges></Clock>\n",Shipley-102-2,60,1.0.0.45,1,1156275908,Professional,2.0.10.356,2.0.10.356,10/16/2019,10/16/2019 15:05,11:05:15,2.0.10.252,0,,5,20884,28185,36,4,maniacal,complaining,36,1,36,trialProc,List1,curious,0,4,-999999,26,180067,0,2,8342,188409,devout,36),QUERULOUS
Shipley,102,Younger,2,"<?xml version=""1.0""?>\n<Clock xmlns:dt=""urn:schemas-microsoft-com:datatypes""><Description dt:dt=""string"">E-Prime Primary Realtime Clock</Description><StartTime><Timestamp dt:dt=""int"">0</Timestamp><DateUtc dt:dt=""string"">2019-10-16T15:05:15Z</DateUtc></StartTime><FrequencyChanges><FrequencyChange><Frequency dt:dt=""r8"">10000000</Frequency><Timestamp dt:dt=""r8"">4351956175159</Timestamp><Current dt:dt=""r8"">0</Current><DateUtc dt:dt=""string"">2019-10-16T15:05:15Z</DateUtc></FrequencyChange></FrequencyChanges></Clock>\n",Shipley-102-2,60,1.0.0.45,1,1156275908,Professional,2.0.10.356,2.0.10.356,10/16/2019,10/16/2019 15:05,11:05:15,2.0.10.252,0,,5,20884,28185,37,1,outcast,locker,37,1,37,trialProc,List1,priest,1,1,-999999,25,188434,0,1,1959,190393,lentil,37),PARIAH
Shipley,102,Younger,2,"<?xml version=""1.0""?>\n<Clock xmlns:dt=""urn:schemas-microsoft-com:datatypes""><Description dt:dt=""string"">E-Prime Primary Realtime Clock</Description><StartTime><Timestamp dt:dt=""int"">0</Timestamp><DateUtc dt:dt=""string"">2019-10-16T15:05:15Z</DateUtc></StartTime><FrequencyChanges><FrequencyChange><Frequency dt:dt=""r8"">10000000</Frequency><Timestamp dt:dt=""r8"">4351956175159</Timestamp><Current dt:dt=""r8"">0</Current><DateUtc dt:dt=""string"">2019-10-16T15:05:15Z</DateUtc></FrequencyChange></FrequencyChanges></Clock>\n",Shipley-102-2,60,1.0.0.45,1,1156275908,Professional,2.0.10.356,2.0.10.356,10/16/2019,10/16/2019 15:05,11:05:15,2.0.10.252,0,,5,20884,28185,38,3,waken,placate,38,1,38,trialProc,List1,ensue,1,3,-999999,24,190417,0,3,5816,196233,incite,38),ABET
Shipley,102,Younger,2,"<?xml version=""1.0""?>\n<Clock xmlns:dt=""urn:schemas-microsoft-com:datatypes""><Description dt:dt=""string"">E-Prime Primary Realtime Clock</Description><StartTime><Timestamp dt:dt=""int"">0</Timestamp><DateUtc dt:dt=""string"">2019-10-16T15:05:15Z</DateUtc></StartTime><FrequencyChanges><FrequencyChange><Frequency dt:dt=""r8"">10000000</Frequency><Timestamp dt:dt=""r8"">4351956175159</Timestamp><Current dt:dt=""r8"">0</Current><DateUtc dt:dt=""string"">2019-10-16T15:05:15Z</DateUtc></FrequencyChange></FrequencyChanges></Clock>\n",Shipley-102-2,60,1.0.0.45,1,1156275908,Professional,2.0.10.356,2.0.10.356,10/16/2019,10/16/2019 15:05,11:05:15,2.0.10.252,0,,5,20884,28185,39,1,rashness,kindness,39,1,39,trialProc,List1,timidity,0,1,-999999,18,196251,0,2,5614,201865,desire,39),TEMERITY
Shipley,102,Younger,2,"<?xml version=""1.0""?>\n<Clock xmlns:dt=""urn:schemas-microsoft-com:datatypes""><Description dt:dt=""string"">E-Prime Primary Realtime Clock</Description><StartTime><Timestamp dt:dt=""int"">0</Timestamp><DateUtc dt:dt=""string"">2019-10-16T15:05:15Z</DateUtc></StartTime><FrequencyChanges><FrequencyChange><Frequency dt:dt=""r8"">10000000</Frequency><Timestamp dt:dt=""r8"">4351956175159</Timestamp><Current dt:dt=""r8"">0</Current><DateUtc dt:dt=""string"">2019-10-16T15:05:15Z</DateUtc></FrequencyChange></FrequencyChanges></Clock>\n",Shipley-102-2,60,1.0.0.45,1,1156275908,Professional,2.0.10.356,2.0.10.356,10/16/2019,10/16/2019 15:05,11:05:15,2.0.10.252,0,,5,20884,28185,40,3,vain,level,40,1,40,trialProc,List1,sound,0,3,-999999,19,201884,0,4,5917,207801,first,40),PRISTINE
Shipley,103,Younger,3,"<?xml version=""1.0""?>\n<Clock xmlns:dt=""urn:schemas-microsoft-com:datatypes""><Description dt:dt=""string"">E-Prime Primary Realtime Clock</Description><StartTime><Timestamp dt:dt=""int"">0</Timestamp><DateUtc dt:dt=""string"">2019-10-18T17:54:26Z</DateUtc></StartTime><FrequencyChanges><FrequencyChange><Frequency dt:dt=""r8"">10000000</Frequency><Timestamp dt:dt=""r8"">6186399713535</Timestamp><Current dt:dt=""r8"">0</Current><DateUtc dt:dt=""string"">2019-10-18T17:54:26Z</DateUtc></FrequencyChange></FrequencyChanges></Clock>\n",Shipley-103-3,60,1.0.0.45,1,1648765466,Professional,2.0.10.356,2.0.10.356,10/18/2019,10/18/2019 17:54,13:54:26,2.0.10.252,0,,{SPACE},20884,39067,1,3,draw,sleep,1,1,1,trialProc,List1,eat,1,3,-999999,15,45866,0,3,2433,48299,speak,1),TALK
Shipley,103,Younger,3,"<?xml version=""1.0""?>\n<Clock xmlns:dt=""urn:schemas-microsoft-com:datatypes""><Description dt:dt=""string"">E-Prime Primary Realtime Clock</Description><StartTime><Timestamp dt:dt=""int"">0</Timestamp><DateUtc dt:dt=""string"">2019-10-18T17:54:26Z</DateUtc></StartTime><FrequencyChanges><FrequencyChange><Frequency dt:dt=""r8"">10000000</Frequency><Timestamp dt:dt=""r8"">6186399713535</Timestamp><Current dt:dt=""r8"">0</Current><DateUtc dt:dt=""string"">2019-10-18T17:54:26Z</DateUtc></FrequencyChange></FrequencyChanges></Clock>\n",Shipley-103-3,60,1.0.0.45,1,1648765466,Professional,2.0.10.356,2.0.10.356,10/18/2019,10/18/2019 17:54,13:54:26,2.0.10.252,0,,{SPACE},20884,39067,2,1,allow,drive,2,1,2,trialProc,List1,sew,1,1,-999999,17,48316,0,1,3855,52171,cut,2),PERMIT
Shipley,103,Younger,3,"<?xml version=""1.0""?>\n<Clock xmlns:dt=""urn:schemas-microsoft-com:datatypes""><Description dt:dt=""string"">E-Prime Primary Realtime Clock</Description><StartTime><Timestamp dt:dt=""int"">0</Timestamp><DateUtc dt:dt=""string"">2019-10-18T17:54:26Z</DateUtc></StartTime><FrequencyChanges><FrequencyChange><Frequency dt:dt=""r8"">10000000</Frequency><Timestamp dt:dt=""r8"">6186399713535</Timestamp><Current dt:dt=""r8"">0</Current><DateUtc dt:dt=""string"">2019-10-18T17:54:26Z</DateUtc></FrequencyChange></FrequencyChanges></Clock>\n",Shipley-103-3,60,1.0.0.45,1,1648765466,Professional,2.0.10.356,2.0.10.356,10/18/2019,10/18/2019 17:54,13:54:26,2.0.10.252,0,,{SPACE},20884,39067,3,1,forgive,tell,3,1,3,trialProc,List1,pount,1,1,-999999,12,52183,0,1,2980,55163,divide,3),PARDON
Shipley,103,Younger,3,"<?xml version=""1.0""?>\n<Clock xmlns:dt=""urn:schemas-microsoft-com:datatypes""><Description dt:dt=""string"">E-Prime Primary Realtime Clock</Description><StartTime><Timestamp dt:dt=""int"">0</Timestamp><DateUtc dt:dt=""string"">2019-10-18T17:54:26Z</DateUtc></StartTime><FrequencyChanges><FrequencyChange><Frequency dt:dt=""r8"">10000000</Frequency><Timestamp dt:dt=""r8"">6186399713535</Timestamp><Current dt:dt=""r8"">0</Current><DateUtc dt:dt=""string"">2019-10-18T17:54:26Z</DateUtc></FrequencyChange></FrequencyChanges></Clock>\n",Shipley-103-3,60,1.0.0.45,1,1648765466,Professional,2.0.10.356,2.0.10.356,10/18/2019,10/18/2019 17:54,13:54:26,2.0.10.252,0,,{SPACE},20884,39067,4,3,pin,glass,4,1,4,trialProc,List1,eraser,1,3,-999999,20,55183,0,3,3148,58331,sofa,4),COUCH
Shipley,103,Younger,3,"<?xml version=""1.0""?>\n<Clock xmlns:dt=""urn:schemas-microsoft-com:datatypes""><Description dt:dt=""string"">E-Prime Primary Realtime Clock</Description><StartTime><Timestamp dt:dt=""int"">0</Timestamp><DateUtc dt:dt=""string"">2019-10-18T17:54:26Z</DateUtc></StartTime><FrequencyChanges><FrequencyChange><Frequency dt:dt=""r8"">10000000</Frequency><Timestamp dt:dt=""r8"">6186399713535</Timestamp><Current dt:dt=""r8"">0</Current><DateUtc dt:dt=""string"">2019-10-18T17:54:26Z</DateUtc></FrequencyChange></FrequencyChanges></Clock>\n",Shipley-103-3,60,1.0.0.45,1,1648765466,Professional,2.0.10.356,2.0.10.356,10/18/2019,10/18/2019 17:54,13:54:26,2.0.10.252,0,,{SPACE},20884,39067,5,2,swim,defy,5,1,5,trialProc,List1,recall,1,2,-999999,18,58349,0,2,3150,61499,number,5),REMEMBER
Shipley,103,Younger,3,"<?xml version=""1.0""?>\n<Clock xmlns:dt=""urn:schemas-microsoft-com:datatypes""><Description dt:dt=""string"">E-Prime Primary Realtime Clock</Description><StartTime><Timestamp dt:dt=""int"">0</Timestamp><DateUtc dt:dt=""string"">2019-10-18T17:54:26Z</DateUtc></StartTime><FrequencyChanges><FrequencyChange><Frequency dt:dt=""r8"">10000000</Frequency><Timestamp dt:dt=""r8"">6186399713535</Timestamp><Current dt:dt=""r8"">0</Current><DateUtc dt:dt=""string"">2019-10-18T17:54:26Z</DateUtc></FrequencyChange></FrequencyChanges></Clock>\n",Shipley-103-3,60,1.0.0.45,1,1648765466,Professional,2.0.10.356,2.0.10.356,10/18/2019,10/18/2019 17:54,13:54:26,2.0.10.252,0,,{SPACE},20884,39067,6,3,drink,think,6,1,6,trialProc,List1,dress,1,3,-999999,17,61516,0,3,2111,63627,fall,6),TUMBLE
Shipley,103,Younger,3,"<?xml version=""1.0""?>\n<Clock xmlns:dt=""urn:schemas-microsoft-com:datatypes""><Description dt:dt=""string"">E-Prime Primary Realtime Clock</Description><StartTime><Timestamp dt:dt=""int"">0</Timestamp><DateUtc dt:dt=""string"">2019-10-18T17:54:26Z</DateUtc></StartTime><FrequencyChanges><FrequencyChange><Frequency dt:dt=""r8"">10000000</Frequency><Timestamp dt:dt=""r8"">6186399713535</Timestamp><Current dt:dt=""r8"">0</Current><DateUtc dt:dt=""string"">2019-10-18T17:54:26Z</DateUtc></FrequencyChange></FrequencyChanges></Clock>\n",Shipley-103-3,60,1.0.0.45,1,1648765466,Professional,2.0.10.356,2.0.10.356,10/18/2019,10/18/2019 17:54,13:54:26,2.0.10.252,0,,{SPACE},20884,39067,7,4,silvery,dreadful,7,1,7,trialProc,List1,tilted,1,4,-999999,22,63649,0,4,2698,66347,young,7),HIDEOUS
Shipley,103,Younger,3,"<?xml version=""1.0""?>\n<Clock xmlns:dt=""urn:schemas-microsoft-com:datatypes""><Description dt:dt=""string"">E-Prime Primary Realtime Clock</Description><StartTime><Timestamp dt:dt=""int"">0</Timestamp><DateUtc dt:dt=""string"">2019-10-18T17:54:26Z</DateUtc></StartTime><FrequencyChanges><FrequencyChange><Frequency dt:dt=""r8"">10000000</Frequency><Timestamp dt:dt=""r8"">6186399713535</Timestamp><Current dt:dt=""r8"">0</Current><DateUtc dt:dt=""string"">2019-10-18T17:54:26Z</DateUtc></FrequencyChange></FrequencyChanges></Clock>\n",Shipley-103-3,60,1.0.0.45,1,1648765466,Professional,2.0.10.356,2.0.10.356,10/18/2019,10/18/2019 17:54,13:54:26,2.0.10.252,0,,{SPACE},20884,39067,8,4,swift,hearty,8,1,8,trialProc,List1,muddy,0,4,-999999,19,66366,0,1,7229,73595,leafy,8),CORDIAL
Shipley,103,Younger,3,"<?xml version=""1.0""?>\n<Clock xmlns:dt=""urn:schemas-microsoft-com:datatypes""><Description dt:dt=""string"">E-Prime Primary Realtime Clock</Description><StartTime><Timestamp dt:dt=""int"">0</Timestamp><DateUtc dt:dt=""string"">2019-10-18T17:54:26Z</DateUtc></StartTime><FrequencyChanges><FrequencyChange><Frequency dt:dt=""r8"">10000000</Frequency><Timestamp dt:dt=""r8"">6186399713535</Timestamp><Current dt:dt=""r8"">0</Current><DateUtc dt:dt=""string"">2019-10-18T17:54:26Z</DateUtc></FrequencyChange></FrequencyChanges></Clock>\n",Shipley-103-3,60,1.0.0.45,1,1648765466,Professional,2.0.10.356,2.0.10.356,10/18/2019,10/18/2019 17:54,13:54:26,2.0.10.252,0,,{SPACE},20884,39067,9,2,green,afraid,9,1,9,trialProc,List1,obvious,1,2,-999999,21,73616,0,2,1979,75595,skeptical,9),EVIDENT
Shipley,103,Younger,3,"<?xml version=""1.0""?>\n<Clock xmlns:dt=""urn:schemas-microsoft-com:datatypes""><Description dt:dt=""string"">E-Prime Primary Realtime Clock</Description><StartTime><Timestamp dt:dt=""int"">0</Timestamp><DateUtc dt:dt=""string"">2019-10-18T17:54:26Z</DateUtc></StartTime><FrequencyChanges><FrequencyChange><Frequency dt:dt=""r8"">10000000</Frequency><Timestamp dt:dt=""r8"">6186399713535</Timestamp><Current dt:dt=""r8"">0</Current><DateUtc dt:dt=""string"">2019-10-18T17:54:26Z</DateUtc></FrequencyChange></FrequencyChanges></Clock>\n",Shipley-103-3,60,1.0.0.45,1,1648765466,Professional,2.0.10.356,2.0.10.356,10/18/2019,10/18/2019 17:54,13:54:26,2.0.10.252,0,,{SPACE},20884,39067,10,4,conductor,pretender,10,1,10,trialProc,List1,officer,1,4,-999999,21,75616,0,4,3371,78987,book,10),IMPOSTOR
Shipley,103,Younger,3,"<?xml version=""1.0""?>\n<Clock xmlns:dt=""urn:schemas-microsoft-com:datatypes""><Description dt:dt=""string"">E-Prime Primary Realtime Clock</Description><StartTime><Timestamp dt:dt=""int"">0</Timestamp><DateUtc dt:dt=""string"">2019-10-18T17:54:26Z</DateUtc></StartTime><FrequencyChanges><FrequencyChange><Frequency dt:dt=""r8"">10000000</Frequency><Timestamp dt:dt=""r8"">6186399713535</Timestamp><Current dt:dt=""r8"">0</Current><DateUtc dt:dt=""string"">2019-10-18T17:54:26Z</DateUtc></FrequencyChange></FrequencyChanges></Clock>\n",Shipley-103-3,60,1.0.0.45,1,1648765466,Professional,2.0.10.356,2.0.10.356,10/18/2019,10/18/2019 17:54,13:54:26,2.0.10.252,0,,{SPACE},20884,39067,11,1,deserve,separate,11,1,11,trialProc,List1,distrust,1,1,-999999,12,78999,0,1,4324,83323,fight,11),MERIT
Shipley,103,Younger,3,"<?xml version=""1.0""?>\n<Clock xmlns:dt=""urn:schemas-microsoft-com:datatypes""><Description dt:dt=""string"">E-Prime Primary Realtime Clock</Description><StartTime><Timestamp dt:dt=""int"">0</Timestamp><DateUtc dt:dt=""string"">2019-10-18T17:54:26Z</DateUtc></StartTime><FrequencyChanges><FrequencyChange><Frequency dt:dt=""r8"">10000000</Frequency><Timestamp dt:dt=""r8"">6186399713535</Timestamp><Current dt:dt=""r8"">0</Current><DateUtc dt:dt=""string"">2019-10-18T17:54:26Z</DateUtc></FrequencyChange></FrequencyChanges></Clock>\n",Shipley-103-3,60,1.0.0.45,1,1648765466,Professional,2.0.10.356,2.0.10.356,10/18/2019,10/18/2019 17:54,13:54:26,2.0.10.252,0,,{SPACE},20884,39067,12,4,welcome,enchant,12,1,12,trialProc,List1,fix,1,4,-999999,26,83349,0,4,5222,88571,stir,12),FASCINATE
Shipley,103,Younger,3,"<?xml version=""1.0""?>\n<Clock xmlns:dt=""urn:schemas-microsoft-com:datatypes""><Description dt:dt=""string"">E-Prime Primary Realtime Clock</Description><StartTime><Timestamp dt:dt=""int"">0</Timestamp><DateUtc dt:dt=""string"">2019-10-18T17:54:26Z</DateUtc></StartTime><FrequencyChanges><FrequencyChange><Frequency dt:dt=""r8"">10000000</Frequency><Timestamp dt:dt=""r8"">6186399713535</Timestamp><Current dt:dt=""r8"">0</Current><DateUtc dt:dt=""string"">2019-10-18T17:54:26Z</DateUtc></FrequencyChange></FrequencyChanges></Clock>\n",Shipley-103-3,60,1.0.0.45,1,1648765466,Professional,2.0.10.356,2.0.10.356,10/18/2019,10/18/2019 17:54,13:54:26,2.0.10.252,0,,{SPACE},20884,39067,13,3,defy,bicker,13,1,13,trialProc,List1,excite,1,3,-999999,12,88583,0,3,2900,91483,signify,13),INDICATE
Shipley,103,Younger,3,"<?xml version=""1.0""?>\n<Clock xmlns:dt=""urn:schemas-microsoft-com:datatypes""><Description dt:dt=""string"">E-Prime Primary Realtime Clock</Description><StartTime><Timestamp dt:dt=""int"">0</Timestamp><DateUtc dt:dt=""string"">2019-10-18T17:54:26Z</DateUtc></StartTime><FrequencyChanges><FrequencyChange><Frequency dt:dt=""r8"">10000000</Frequency><Timestamp dt:dt=""r8"">6186399713535</Timestamp><Current dt:dt=""r8"">0</Current><DateUtc dt:dt=""string"">2019-10-18T17:54:26Z</DateUtc></FrequencyChange></FrequencyChanges></Clock>\n",Shipley-103-3,60,1.0.0.45,1,1648765466,Professional,2.0.10.356,2.0.10.356,10/18/2019,10/18/2019 17:54,13:54:26,2.0.10.252,0,,{SPACE},20884,39067,14,3,red,precise,14,1,14,trialProc,List1,sharp,1,3,-999999,16,91499,0,3,2368,93867,uninformed,14),IGNORANT
Shipley,103,Younger,3,"<?xml version=""1.0""?>\n<Clock xmlns:dt=""urn:schemas-microsoft-com:datatypes""><Description dt:dt=""string"">E-Prime Primary Realtime Clock</Description><StartTime><Timestamp dt:dt=""int"">0</Timestamp><DateUtc dt:dt=""string"">2019-10-18T17:54:26Z</DateUtc></StartTime><FrequencyChanges><FrequencyChange><Frequency dt:dt=""r8"">10000000</Frequency><Timestamp dt:dt=""r8"">6186399713535</Timestamp><Current dt:dt=""r8"">0</Current><DateUtc dt:dt=""string"">2019-10-18T17:54:26Z</DateUtc></FrequencyChange></FrequencyChanges></Clock>\n",Shipley-103-3,60,1.0.0.45,1,1648765466,Professional,2.0.10.356,2.0.10.356,10/18/2019,10/18/2019 17:54,13:54:26,2.0.10.252,0,,{SPACE},20884,39067,15,2,submerge,deaden,15,1,15,trialProc,List1,strengthen,0,2,-999999,16,93883,0,4,4064,97947,vent,15),FORTIFY
Shipley,103,Younger,3,"<?xml version=""1.0""?>\n<Clock xmlns:dt=""urn:schemas-microsoft-com:datatypes""><Description dt:dt=""string"">E-Prime Primary Realtime Clock</Description><StartTime><Timestamp dt:dt=""int"">0</Timestamp><DateUtc dt:dt=""string"">2019-10-18T17:54:26Z</DateUtc></StartTime><FrequencyChanges><FrequencyChange><Frequency dt:dt=""r8"">10000000</Frequency><Timestamp dt:dt=""r8"">6186399713535</Timestamp><Current dt:dt=""r8"">0</Current><DateUtc dt:dt=""string"">2019-10-18T17:54:26Z</DateUtc></FrequencyChange></FrequencyChanges></Clock>\n",Shipley-103-3,60,1.0.0.45,1,1648765466,Professional,2.0.10.356,2.0.10.356,10/18/2019,10/18/2019 17:54,13:54:26,2.0.10.252,0,,{SPACE},20884,39067,16,3,length,loyalty,16,1,16,trialProc,List1,head,1,3,-999999,19,97966,0,3,9629,107595,fame,16),RENOWN
Shipley,103,Younger,3,"<?xml version=""1.0""?>\n<Clock xmlns:dt=""urn:schemas-microsoft-com:datatypes""><Description dt:dt=""string"">E-Prime Primary Realtime Clock</Description><StartTime><Timestamp dt:dt=""int"">0</Timestamp><DateUtc dt:dt=""string"">2019-10-18T17:54:26Z</DateUtc></StartTime><FrequencyChanges><FrequencyChange><Frequency dt:dt=""r8"">10000000</Frequency><Timestamp dt:dt=""r8"">6186399713535</Timestamp><Current dt:dt=""r8"">0</Current><DateUtc dt:dt=""string"">2019-10-18T17:54:26Z</DateUtc></FrequencyChange></FrequencyChanges></Clock>\n",Shipley-103-3,60,1.0.0.45,1,1648765466,Professional,2.0.10.356,2.0.10.356,10/18/2019,10/18/2019 17:54,13:54:26,2.0.10.252,0,,{SPACE},20884,39067,17,4,yield,tell,17,1,17,trialProc,List1,buy,1,4,-999999,21,107616,0,4,4923,112539,associate,17),NARRATE
Shipley,103,Younger,3,"<?xml version=""1.0""?>\n<Clock xmlns:dt=""urn:schemas-microsoft-com:datatypes""><Description dt:dt=""string"">E-Prime Primary Realtime Clock</Description><StartTime><Timestamp dt:dt=""int"">0</Timestamp><DateUtc dt:dt=""string"">2019-10-18T17:54:26Z</DateUtc></StartTime><FrequencyChanges><FrequencyChange><Frequency dt:dt=""r8"">10000000</Frequency><Timestamp dt:dt=""r8"">6186399713535</Timestamp><Current dt:dt=""r8"">0</Current><DateUtc dt:dt=""string"">2019-10-18T17:54:26Z</DateUtc></FrequencyChange></FrequencyChanges></Clock>\n",Shipley-103-3,60,1.0.0.45,1,1648765466,Professional,2.0.10.356,2.0.10.356,10/18/2019,10/18/2019 17:54,13:54:26,2.0.10.252,0,,{SPACE},20884,39067,18,2,bright,low,18,1,18,trialProc,List1,large,1,2,-999999,10,112549,0,2,2646,115195,speedy,18),MASSIVE
Shipley,103,Younger,3,"<?xml version=""1.0""?>\n<Clock xmlns:dt=""urn:schemas-microsoft-com:datatypes""><Description dt:dt=""string"">E-Prime Primary Realtime Clock</Description><StartTime><Timestamp dt:dt=""int"">0</Timestamp><DateUtc dt:dt=""string"">2019-10-18T17:54:26Z</DateUtc></StartTime><FrequencyChanges><FrequencyChange><Frequency dt:dt=""r8"">10000000</Frequency><Timestamp dt:dt=""r8"">6186399713535</Timestamp><Current dt:dt=""r8"">0</Current><DateUtc dt:dt=""string"">2019-10-18T17:54:26Z</DateUtc></FrequencyChange></FrequencyChanges></Clock>\n",Shipley-103-3,60,1.0.0.45,1,1648765466,Professional,2.0.10.356,2.0.10.356,10/18/2019,10/18/2019 17:54,13:54:26,2.0.10.252,0,,{SPACE},20884,39067,19,1,laughter,malice,19,1,19,trialProc,List1,speed,1,1,-999999,21,115216,0,1,3787,119003,grace,19),HILARITY
Shipley,103,Younger,3,"<?xml version=""1.0""?>\n<Clock xmlns:dt=""urn:schemas-microsoft-com:datatypes""><Description dt:dt=""string"">E-Prime Primary Realtime Clock</Description><StartTime><Timestamp dt:dt=""int"">0</Timestamp><DateUtc dt:dt=""string"">2019-10-18T17:54:26Z</DateUtc></StartTime><FrequencyChanges><FrequencyChange><Frequency dt:dt=""r8"">10000000</Frequency><Timestamp dt:dt=""r8"">6186399713535</Timestamp><Current dt:dt=""r8"">0</Current><DateUtc dt:dt=""string"">2019-10-18T17:54:26Z</DateUtc></FrequencyChange></FrequencyChanges></Clock>\n",Shipley-103-3,60,1.0.0.45,1,1648765466,Professional,2.0.10.356,2.0.10.356,10/18/2019,10/18/2019 17:54,13:54:26,2.0.10.252,0,,{SPACE},20884,39067,20,4,stolen,soiled,20,1,20,trialProc,List1,pointed,1,4,-999999,13,119016,0,4,7651,126667,remade,20),SMIRCHED
Shipley,103,Younger,3,"<?xml version=""1.0""?>\n<Clock xmlns:dt=""urn:schemas-microsoft-com:datatypes""><Description dt:dt=""string"">E-Prime Primary Realtime Clock</Description><StartTime><Timestamp dt:dt=""int"">0</Timestamp><DateUtc dt:dt=""string"">2019-10-18T17:54:26Z</DateUtc></StartTime><FrequencyChanges><FrequencyChange><Frequency dt:dt=""r8"">10000000</Frequency><Timestamp dt:dt=""r8"">6186399713535</Timestamp><Current dt:dt=""r8"">0</Current><DateUtc dt:dt=""string"">2019-10-18T17:54:26Z</DateUtc></FrequencyChange></FrequencyChanges></Clock>\n",Shipley-103-3,60,1.0.0.45,1,1648765466,Professional,2.0.10.356,2.0.10.356,10/18/2019,10/18/2019 17:54,13:54:26,2.0.10.252,0,,{SPACE},20884,39067,21,4,tease,waste,21,1,21,trialProc,List1,belittle,0,4,-999999,16,126683,0,2,10368,137051,cut,21),SQUANDER
Shipley,103,Younger,3,"<?xml version=""1.0""?>\n<Clock xmlns:dt=""urn:schemas-microsoft-com:datatypes""><Description dt:dt=""string"">E-Prime Primary Realtime Clock</Description><StartTime><Timestamp dt:dt=""int"">0</Timestamp><DateUtc dt:dt=""string"">2019-10-18T17:54:26Z</DateUtc></StartTime><FrequencyChanges><FrequencyChange><Frequency dt:dt=""r8"">10000000</Frequency><Timestamp dt:dt=""r8"">6186399713535</Timestamp><Current dt:dt=""r8"">0</Current><DateUtc dt:dt=""string"">2019-10-18T17:54:26Z</DateUtc></FrequencyChange></FrequencyChanges></Clock>\n",Shipley-103-3,60,1.0.0.45,1,1648765466,Professional,2.0.10.356,2.0.10.356,10/18/2019,10/18/2019 17:54,13:54:26,2.0.10.252,0,,{SPACE},20884,39067,22,3,drum,ape,22,1,22,trialProc,List1,ballast,1,3,-999999,15,137066,0,3,3313,140379,heading,22),CAPTION
Shipley,103,Younger,3,"<?xml version=""1.0""?>\n<Clock xmlns:dt=""urn:schemas-microsoft-com:datatypes""><Description dt:dt=""string"">E-Prime Primary Realtime Clock</Description><StartTime><Timestamp dt:dt=""int"">0</Timestamp><DateUtc dt:dt=""string"">2019-10-18T17:54:26Z</DateUtc></StartTime><FrequencyChanges><FrequencyChange><Frequency dt:dt=""r8"">10000000</Frequency><Timestamp dt:dt=""r8"">6186399713535</Timestamp><Current dt:dt=""r8"">0</Current><DateUtc dt:dt=""string"">2019-10-18T17:54:26Z</DateUtc></FrequencyChange></FrequencyChanges></Clock>\n",Shipley-103-3,60,1.0.0.45,1,1648765466,Professional,2.0.10.356,2.0.10.356,10/18/2019,10/18/2019 17:54,13:54:26,2.0.10.252,0,,{SPACE},20884,39067,23,1,help,bewilder,23,1,23,trialProc,List1,turn,1,1,-999999,20,140399,0,1,2652,143051,strip,23),FACILITATE
Shipley,103,Younger,3,"<?xml version=""1.0""?>\n<Clock xmlns:dt=""urn:schemas-microsoft-com:datatypes""><Description dt:dt=""string"">E-Prime Primary Realtime Clock</Description><StartTime><Timestamp dt:dt=""int"">0</Timestamp><DateUtc dt:dt=""string"">2019-10-18T17:54:26Z</DateUtc></StartTime><FrequencyChanges><FrequencyChange><Frequency dt:dt=""r8"">10000000</Frequency><Timestamp dt:dt=""r8"">6186399713535</Timestamp><Current dt:dt=""r8"">0</Current><DateUtc dt:dt=""string"">2019-10-18T17:54:26Z</DateUtc></FrequencyChange></FrequencyChanges></Clock>\n",Shipley-103-3,60,1.0.0.45,1,1648765466,Professional,2.0.10.356,2.0.10.356,10/18/2019,10/18/2019 17:54,13:54:26,2.0.10.252,0,,{SPACE},20884,39067,24,1,humorous,plain,24,1,24,trialProc,List1,paltry,0,1,-999999,15,143066,0,4,15569,158635,fervid,24),JOCOSE
Shipley,103,Younger,3,"<?xml version=""1.0""?>\n<Clock xmlns:dt=""urn:schemas-microsoft-com:datatypes""><Description dt:dt=""string"">E-Prime Primary Realtime Clock</Description><StartTime><Timestamp dt:dt=""int"">0</Timestamp><DateUtc dt:dt=""string"">2019-10-18T17:54:26Z</DateUtc></StartTime><FrequencyChanges><FrequencyChange><Frequency dt:dt=""r8"">10000000</Frequency><Timestamp dt:dt=""r8"">6186399713535</Timestamp><Current dt:dt=""r8"">0</Current><DateUtc dt:dt=""string"">2019-10-18T17:54:26Z</DateUtc></FrequencyChange></FrequencyChanges></Clock>\n",Shipley-103-3,60,1.0.0.45,1,1648765466,Professional,2.0.10.356,2.0.10.356,10/18/2019,10/18/2019 17:54,13:54:26,2.0.10.252,0,,{SPACE},20884,39067,25,3,reduce,delight,25,1,25,trialProc,List1,strew,0,3,-999999,14,158649,0,4,8530,167179,inform,25),APPRISE
Shipley,103,Younger,3,"<?xml version=""1.0""?>\n<Clock xmlns:dt=""urn:schemas-microsoft-com:datatypes""><Description dt:dt=""string"">E-Prime Primary Realtime Clock</Description><StartTime><Timestamp dt:dt=""int"">0</Timestamp><DateUtc dt:dt=""string"">2019-10-18T17:54:26Z</DateUtc></StartTime><FrequencyChanges><FrequencyChange><Frequency dt:dt=""r8"">10000000</Frequency><Timestamp dt:dt=""r8"">6186399713535</Timestamp><Current dt:dt=""r8"">0</Current><DateUtc dt:dt=""string"">2019-10-18T17:54:26Z</DateUtc></FrequencyChange></FrequencyChanges></Clock>\n",Shipley-103-3,60,1.0.0.45,1,1648765466,Professional,2.0.10.356,2.0.10.356,10/18/2019,10/18/2019 17:54,13:54:26,2.0.10.252,0,,{SPACE},20884,39067,26,2,eat,cure,26,1,26,trialProc,List1,lament,1,2,-999999,20,167199,0,2,3900,171099,dominate,26),RUE
Shipley,103,Younger,3,"<?xml version=""1.0""?>\n<Clock xmlns:dt=""urn:schemas-microsoft-com:datatypes""><Description dt:dt=""string"">E-Prime Primary Realtime Clock</Description><StartTime><Timestamp dt:dt=""int"">0</Timestamp><DateUtc dt:dt=""string"">2019-10-18T17:54:26Z</DateUtc></StartTime><FrequencyChanges><FrequencyChange><Frequency dt:dt=""r8"">10000000</Frequency><Timestamp dt:dt=""r8"">6186399713535</Timestamp><Current dt:dt=""r8"">0</Current><DateUtc dt:dt=""string"">2019-10-18T17:54:26Z</DateUtc></FrequencyChange></FrequencyChanges></Clock>\n",Shipley-103-3,60,1.0.0.45,1,1648765466,Professional,2.0.10.356,2.0.10.356,10/18/2019,10/18/2019 17:54,13:54:26,2.0.10.252,0,,{SPACE},20884,39067,27,2,senator,atom,27,1,27,trialProc,List1,inhabitant,1,2,-999999,17,171116,0,2,9439,180555,fish,27),DENIZEN
Shipley,103,Younger,3,"<?xml version=""1.0""?>\n<Clock xmlns:dt=""urn:schemas-microsoft-com:datatypes""><Description dt:dt=""string"">E-Prime Primary Realtime Clock</Description><StartTime><Timestamp dt:dt=""int"">0</Timestamp><DateUtc dt:dt=""string"">2019-10-18T17:54:26Z</DateUtc></StartTime><FrequencyChanges><FrequencyChange><Frequency dt:dt=""r8"">10000000</Frequency><Timestamp dt:dt=""r8"">6186399713535</Timestamp><Current dt:dt=""r8"">0</Current><DateUtc dt:dt=""string"">2019-10-18T17:54:26Z</DateUtc></FrequencyChange></FrequencyChanges></Clock>\n",Shipley-103-3,60,1.0.0.45,1,1648765466,Professional,2.0.10.356,2.0.10.356,10/18/2019,10/18/2019 17:54,13:54:26,2.0.10.252,0,,{SPACE},20884,39067,28,1,dispossess,pledge,28,1,28,trialProc,List1,intrude,0,1,-999999,11,180566,0,4,8469,189035,rally,28),DIVEST
Shipley,103,Younger,3,"<?xml version=""1.0""?>\n<Clock xmlns:dt=""urn:schemas-microsoft-com:datatypes""><Description dt:dt=""string"">E-Prime Primary Realtime Clock</Description><StartTime><Timestamp dt:dt=""int"">0</Timestamp><DateUtc dt:dt=""string"">2019-10-18T17:54:26Z</DateUtc></StartTime><FrequencyChanges><FrequencyChange><Frequency dt:dt=""r8"">10000000</Frequency><Timestamp dt:dt=""r8"">6186399713535</Timestamp><Current dt:dt=""r8"">0</Current><DateUtc dt:dt=""string"">2019-10-18T17:54:26Z</DateUtc></FrequencyChange></FrequencyChanges></Clock>\n",Shipley-103-3,60,1.0.0.45,1,1648765466,Professional,2.0.10.356,2.0.10.356,10/18/2019,10/18/2019 17:54,13:54:26,2.0.10.252,0,,{SPACE},20884,39067,29,1,charm,pong,29,1,29,trialProc,List1,orphan,1,1,-999999,14,189049,0,1,4802,193851,dingo,29),AMULET
Shipley,103,Younger,3,"<?xml version=""1.0""?>\n<Clock xmlns:dt=""urn:schemas-microsoft-com:datatypes""><Description dt:dt=""string"">E-Prime Primary Realtime Clock</Description><StartTime><Timestamp dt:dt=""int"">0</Timestamp><DateUtc dt:dt=""string"">2019-10-18T17:54:26Z</DateUtc></StartTime><FrequencyChanges><FrequencyChange><Frequency dt:dt=""r8"">10000000</Frequency><Timestamp dt:dt=""r8"">6186399713535</Timestamp><Current dt:dt=""r8"">0</Current><DateUtc dt:dt=""string"">2019-10-18T17:54:26Z</DateUtc></FrequencyChange></FrequencyChanges></Clock>\n",Shipley-103-3,60,1.0.0.45,1,1648765466,Professional,2.0.10.356,2.0.10.356,10/18/2019,10/18/2019 17:54,13:54:26,2.0.10.252,0,,{SPACE},20884,39067,30,3,untidy,sparse,30,1,30,trialProc,List1,involatile,0,3,-999999,15,193866,0,1,10865,204731,rigid,30),INEXORABLE
Shipley,103,Younger,3,"<?xml version=""1.0""?>\n<Clock xmlns:dt=""urn:schemas-microsoft-com:datatypes""><Description dt:dt=""string"">E-Prime Primary Realtime Clock</Description><StartTime><Timestamp dt:dt=""int"">0</Timestamp><DateUtc dt:dt=""string"">2019-10-18T17:54:26Z</DateUtc></StartTime><FrequencyChanges><FrequencyChange><Frequency dt:dt=""r8"">10000000</Frequency><Timestamp dt:dt=""r8"">6186399713535</Timestamp><Current dt:dt=""r8"">0</Current><DateUtc dt:dt=""string"">2019-10-18T17:54:26Z</DateUtc></FrequencyChange></FrequencyChanges></Clock>\n",Shipley-103-3,60,1.0.0.45,1,1648765466,Professional,2.0.10.356,2.0.10.356,10/18/2019,10/18/2019 17:54,13:54:26,2.0.10.252,0,,{SPACE},20884,39067,31,2,dried,blunt,31,1,31,trialProc,List1,notched,1,2,-999999,18,204749,0,2,6478,211227,armed,31),SERRATED
Shipley,103,Younger,3,"<?xml version=""1.0""?>\n<Clock xmlns:dt=""urn:schemas-microsoft-com:datatypes""><Description dt:dt=""string"">E-Prime Primary Realtime Clock</Description><StartTime><Timestamp dt:dt=""int"">0</Timestamp><DateUtc dt:dt=""string"">2019-10-18T17:54:26Z</DateUtc></StartTime><FrequencyChanges><FrequencyChange><Frequency dt:dt=""r8"">10000000</Frequency><Timestamp dt:dt=""r8"">6186399713535</Timestamp><Current dt:dt=""r8"">0</Current><DateUtc dt:dt=""string"">2019-10-18T17:54:26Z</DateUtc></FrequencyChange></FrequencyChanges></Clock>\n",Shipley-103-3,60,1.0.0.45,1,1648765466,Professional,2.0.10.356,2.0.10.356,10/18/2019,10/18/2019 17:54,13:54:26,2.0.10.252,0,,{SPACE},20884,39067,32,3,moldy,convex,32,1,32,trialProc,List1,loose,1,3,-999999,22,211249,0,3,8426,219675,supple,32),LISSOM
Shipley,103,Younger,3,"<?xml version=""1.0""?>\n<Clock xmlns:dt=""urn:schemas-microsoft-com:datatypes""><Description dt:dt=""string"">E-Prime Primary Realtime Clock</Description><StartTime><Timestamp dt:dt=""int"">0</Timestamp><DateUtc dt:dt=""string"">2019-10-18T17:54:26Z</DateUtc></StartTime><FrequencyChanges><FrequencyChange><Frequency dt:dt=""r8"">10000000</Frequency><Timestamp dt:dt=""r8"">6186399713535</Timestamp><Current dt:dt=""r8"">0</Current><DateUtc dt:dt=""string"">2019-10-18T17:54:26Z</DateUtc></FrequencyChange></FrequencyChanges></Clock>\n",Shipley-103-3,60,1.0.0.45,1,1648765466,Professional,2.0.10.356,2.0.10.356,10/18/2019,10/18/2019 17:54,13:54:26,2.0.10.252,0,,{SPACE},20884,39067,33,1,mitigate,abuse,33,1,33,trialProc,List1,direct,0,1,-999999,24,219699,0,4,11496,231195,pertain,33),MOLLIFY
Shipley,103,Younger,3,"<?xml version=""1.0""?>\n<Clock xmlns:dt=""urn:schemas-microsoft-com:datatypes""><Description dt:dt=""string"">E-Prime Primary Realtime Clock</Description><StartTime><Timestamp dt:dt=""int"">0</Timestamp><DateUtc dt:dt=""string"">2019-10-18T17:54:26Z</DateUtc></StartTime><FrequencyChanges><FrequencyChange><Frequency dt:dt=""r8"">10000000</Frequency><Timestamp dt:dt=""r8"">6186399713535</Timestamp><Current dt:dt=""r8"">0</Current><DateUtc dt:dt=""string"">2019-10-18T17:54:26Z</DateUtc></FrequencyChange></FrequencyChanges></Clock>\n",Shipley-103-3,60,1.0.0.45,1,1648765466,Professional,2.0.10.356,2.0.10.356,10/18/2019,10/18/2019 17:54,13:54:26,2.0.10.252,0,,{SPACE},20884,39067,34,1,appropriate,maintain,34,1,34,trialProc,List1,intend,0,1,-999999,21,231216,0,3,10907,242123,revoke,34),PLAGIARIZE
Shipley,103,Younger,3,"<?xml version=""1.0""?>\n<Clock xmlns:dt=""urn:schemas-microsoft-com:datatypes""><Description dt:dt=""string"">E-Prime Primary Realtime Clock</Description><StartTime><Timestamp dt:dt=""int"">0</Timestamp><DateUtc dt:dt=""string"">2019-10-18T17:54:26Z</DateUtc></StartTime><FrequencyChanges><FrequencyChange><Frequency dt:dt=""r8"">10000000</Frequency><Timestamp dt:dt=""r8"">6186399713535</Timestamp><Current dt:dt=""r8"">0</Current><DateUtc dt:dt=""string"">2019-10-18T17:54:26Z</DateUtc></FrequencyChange></FrequencyChanges></Clock>\n",Shipley-103-3,60,1.0.0.45,1,1648765466,Professional,2.0.10.356,2.0.10.356,10/18/2019,10/18/2019 17:54,13:54:26,2.0.10.252,0,,{SPACE},20884,39067,35,2,brush,lute,35,1,35,trialProc,List1,hole,1,2,-999999,26,242149,0,2,6422,248571,building,35),ORIFICE
Shipley,103,Younger,3,"<?xml version=""1.0""?>\n<Clock xmlns:dt=""urn:schemas-microsoft-com:datatypes""><Description dt:dt=""string"">E-Prime Primary Realtime Clock</Description><StartTime><Timestamp dt:dt=""int"">0</Timestamp><DateUtc dt:dt=""string"">2019-10-18T17:54:26Z</DateUtc></StartTime><FrequencyChanges><FrequencyChange><Frequency dt:dt=""r8"">10000000</Frequency><Timestamp dt:dt=""r8"">6186399713535</Timestamp><Current dt:dt=""r8"">0</Current><DateUtc dt:dt=""string"">2019-10-18T17:54:26Z</DateUtc></FrequencyChange></FrequencyChanges></Clock>\n",Shipley-103-3,60,1.0.0.45,1,1648765466,Professional,2.0.10.356,2.0.10.356,10/18/2019,10/18/2019 17:54,13:54:26,2.0.10.252,0,,{SPACE},20884,39067,36,4,maniacal,complaining,36,1,36,trialProc,List1,curious,0,4,-999999,12,248583,0,2,8292,256875,devout,36),QUERULOUS
Shipley,103,Younger,3,"<?xml version=""1.0""?>\n<Clock xmlns:dt=""urn:schemas-microsoft-com:datatypes""><Description dt:dt=""string"">E-Prime Primary Realtime Clock</Description><StartTime><Timestamp dt:dt=""int"">0</Timestamp><DateUtc dt:dt=""string"">2019-10-18T17:54:26Z</DateUtc></StartTime><FrequencyChanges><FrequencyChange><Frequency dt:dt=""r8"">10000000</Frequency><Timestamp dt:dt=""r8"">6186399713535</Timestamp><Current dt:dt=""r8"">0</Current><DateUtc dt:dt=""string"">2019-10-18T17:54:26Z</DateUtc></FrequencyChange></FrequencyChanges></Clock>\n",Shipley-103-3,60,1.0.0.45,1,1648765466,Professional,2.0.10.356,2.0.10.356,10/18/2019,10/18/2019 17:54,13:54:26,2.0.10.252,0,,{SPACE},20884,39067,37,1,outcast,locker,37,1,37,trialProc,List1,priest,1,1,-999999,24,256899,0,1,6184,263083,lentil,37),PARIAH
Shipley,103,Younger,3,"<?xml version=""1.0""?>\n<Clock xmlns:dt=""urn:schemas-microsoft-com:datatypes""><Description dt:dt=""string"">E-Prime Primary Realtime Clock</Description><StartTime><Timestamp dt:dt=""int"">0</Timestamp><DateUtc dt:dt=""string"">2019-10-18T17:54:26Z</DateUtc></StartTime><FrequencyChanges><FrequencyChange><Frequency dt:dt=""r8"">10000000</Frequency><Timestamp dt:dt=""r8"">6186399713535</Timestamp><Current dt:dt=""r8"">0</Current><DateUtc dt:dt=""string"">2019-10-18T17:54:26Z</DateUtc></FrequencyChange></FrequencyChanges></Clock>\n",Shipley-103-3,60,1.0.0.45,1,1648765466,Professional,2.0.10.356,2.0.10.356,10/18/2019,10/18/2019 17:54,13:54:26,2.0.10.252,0,,{SPACE},20884,39067,38,3,waken,placate,38,1,38,trialProc,List1,ensue,1,3,-999999,16,263099,0,3,5744,268843,incite,38),ABET
Shipley,103,Younger,3,"<?xml version=""1.0""?>\n<Clock xmlns:dt=""urn:schemas-microsoft-com:datatypes""><Description dt:dt=""string"">E-Prime Primary Realtime Clock</Description><StartTime><Timestamp dt:dt=""int"">0</Timestamp><DateUtc dt:dt=""string"">2019-10-18T17:54:26Z</DateUtc></StartTime><FrequencyChanges><FrequencyChange><Frequency dt:dt=""r8"">10000000</Frequency><Timestamp dt:dt=""r8"">6186399713535</Timestamp><Current dt:dt=""r8"">0</Current><DateUtc dt:dt=""string"">2019-10-18T17:54:26Z</DateUtc></FrequencyChange></FrequencyChanges></Clock>\n",Shipley-103-3,60,1.0.0.45,1,1648765466,Professional,2.0.10.356,2.0.10.356,10/18/2019,10/18/2019 17:54,13:54:26,2.0.10.252,0,,{SPACE},20884,39067,39,1,rashness,kindness,39,1,39,trialProc,List1,timidity,0,1,-999999,23,268866,0,4,7433,276299,desire,39),TEMERITY
Shipley,103,Younger,3,"<?xml version=""1.0""?>\n<Clock xmlns:dt=""urn:schemas-microsoft-com:datatypes""><Description dt:dt=""string"">E-Prime Primary Realtime Clock</Description><StartTime><Timestamp dt:dt=""int"">0</Timestamp><DateUtc dt:dt=""string"">2019-10-18T17:54:26Z</DateUtc></StartTime><FrequencyChanges><FrequencyChange><Frequency dt:dt=""r8"">10000000</Frequency><Timestamp dt:dt=""r8"">6186399713535</Timestamp><Current dt:dt=""r8"">0</Current><DateUtc dt:dt=""string"">2019-10-18T17:54:26Z</DateUtc></FrequencyChange></FrequencyChanges></Clock>\n",Shipley-103-3,60,1.0.0.45,1,1648765466,Professional,2.0.10.356,2.0.10.356,10/18/2019,10/18/2019 17:54,13:54:26,2.0.10.252,0,,{SPACE},20884,39067,40,3,vain,level,40,1,40,trialProc,List1,sound,0,3,-999999,17,276316,0,2,6127,282443,first,40),PRISTINE
Shipley,104,Younger,4,"<?xml version=""1.0""?>\n<Clock xmlns:dt=""urn:schemas-microsoft-com:datatypes""><Description dt:dt=""string"">E-Prime Primary Realtime Clock</Description><StartTime><Timestamp dt:dt=""int"">0</Timestamp><DateUtc dt:dt=""string"">2019-10-24T17:54:35Z</DateUtc></StartTime><FrequencyChanges><FrequencyChange><Frequency dt:dt=""r8"">10000000</Frequency><Timestamp dt:dt=""r8"">5051312823403</Timestamp><Current dt:dt=""r8"">0</Current><DateUtc dt:dt=""string"">2019-10-24T17:54:35Z</DateUtc></FrequencyChange></FrequencyChanges></Clock>\n",Shipley-104-4,60.001,1.0.0.45,1,433328654,Professional,2.0.10.356,2.0.10.356,10/24/2019,10/24/2019 17:54,13:54:36,2.0.10.252,0,,{SPACE},47055,61242,1,3,draw,sleep,1,1,1,trialProc,List1,eat,1,3,-999999,21,71087,0,3,2923,74010,speak,1),TALK
Shipley,104,Younger,4,"<?xml version=""1.0""?>\n<Clock xmlns:dt=""urn:schemas-microsoft-com:datatypes""><Description dt:dt=""string"">E-Prime Primary Realtime Clock</Description><StartTime><Timestamp dt:dt=""int"">0</Timestamp><DateUtc dt:dt=""string"">2019-10-24T17:54:35Z</DateUtc></StartTime><FrequencyChanges><FrequencyChange><Frequency dt:dt=""r8"">10000000</Frequency><Timestamp dt:dt=""r8"">5051312823403</Timestamp><Current dt:dt=""r8"">0</Current><DateUtc dt:dt=""string"">2019-10-24T17:54:35Z</DateUtc></FrequencyChange></FrequencyChanges></Clock>\n",Shipley-104-4,60.001,1.0.0.45,1,433328654,Professional,2.0.10.356,2.0.10.356,10/24/2019,10/24/2019 17:54,13:54:36,2.0.10.252,0,,{SPACE},47055,61242,2,1,allow,drive,2,1,2,trialProc,List1,sew,1,1,-999999,27,74037,0,1,3141,77178,cut,2),PERMIT
Shipley,104,Younger,4,"<?xml version=""1.0""?>\n<Clock xmlns:dt=""urn:schemas-microsoft-com:datatypes""><Description dt:dt=""string"">E-Prime Primary Realtime Clock</Description><StartTime><Timestamp dt:dt=""int"">0</Timestamp><DateUtc dt:dt=""string"">2019-10-24T17:54:35Z</DateUtc></StartTime><FrequencyChanges><FrequencyChange><Frequency dt:dt=""r8"">10000000</Frequency><Timestamp dt:dt=""r8"">5051312823403</Timestamp><Current dt:dt=""r8"">0</Current><DateUtc dt:dt=""string"">2019-10-24T17:54:35Z</DateUtc></FrequencyChange></FrequencyChanges></Clock>\n",Shipley-104-4,60.001,1.0.0.45,1,433328654,Professional,2.0.10.356,2.0.10.356,10/24/2019,10/24/2019 17:54,13:54:36,2.0.10.252,0,,{SPACE},47055,61242,3,1,forgive,tell,3,1,3,trialProc,List1,pount,1,1,-999999,26,77204,0,1,3942,81146,divide,3),PARDON
